time,seconds_elapsed,z,y,x
1695200956453258200,0.15525830078125,0.06864356994628906,1.7141704559326172,-3.7621705532073975
1695200956463244300,0.165244384765625,-0.04311847686767578,1.4076850414276123,-3.1844797134399414
1695200956473237800,0.17523779296875,0.6773157119750977,1.6809587478637695,-3.066542863845825
1695200956483232800,0.185232666015625,0.5617580413818359,1.5582258701324463,-2.0126147270202637
1695200956493229000,0.19522900390625,0.4703073501586914,1.236009120941162,-1.4681715965270996
1695200956503225600,0.2052255859375,-0.04598808288574219,0.6346101760864258,-0.8290700912475586
1695200956513222400,0.215222412109375,-0.6283226013183594,0.12341165542602539,-0.6106327176094055
1695200956523219700,0.2252197265625,-1.9328899383544922,0.598109245300293,-3.0014638900756836
1695200956533217300,0.23521728515625,-1.727245807647705,0.987891674041748,-5.179477691650391
1695200956543214800,0.24521484375,-3.1613430976867676,0.950042724609375,-5.587253093719482
1695200956553212400,0.25521240234375,-2.281036376953125,0.6636672019958496,-3.800222396850586
1695200956563210500,0.26521044921875,-1.9012775421142578,0.07775616645812988,-1.8190962076187134
1695200956573208600,0.27520849609375,-1.7210278511047363,-0.19014883041381836,-0.6872791647911072
1695200956583207000,0.28520703125,-1.0975594520568848,-0.028988361358642578,-0.3988129794597626
1695200956593205200,0.295205322265625,-0.4071693420410156,0.286083459854126,-0.4012508690357208
1695200956603203600,0.30520361328125,0.1916656494140625,0.663794755935669,-0.602270781993866
1695200956613202200,0.3152021484375,0.3547487258911133,0.675360918045044,-0.7682411670684814
1695200956623200500,0.325200439453125,0.24282455444335938,0.38800597190856934,-1.0208441019058228
1695200956633198800,0.33519873046875,-0.41814613342285156,-0.0718836784362793,-1.3393809795379639
1695200956643197200,0.345197265625,-0.5559968948364258,-0.22179269790649414,-1.789416790008545
1695200956653195800,0.35519580078125,-1.3365249633789062,0.034363746643066406,-2.463271379470825
1695200956663194000,0.365194091796875,-2.1716623306274414,-0.7914268970489502,-1.9480128288269043
1695200956673192700,0.375192626953125,-2.5775084495544434,-0.3917686939239502,-1.8930113315582275
1695200956683191000,0.38519091796875,-2.2222962379455566,0.0944375991821289,-1.8253670930862427
1695200956693189600,0.395189697265625,-1.8218088150024414,0.2311689853668213,-1.3421647548675537
1695200956703188000,0.40518798828125,-1.247408390045166,0.31388425827026367,-1.0147576332092285
1695200956713186600,0.4151865234375,-0.6426143646240234,0.30721497535705566,-0.971860408782959
1695200956723185000,0.425184814453125,-0.6607017517089844,0.3608894348144531,-0.9986444711685181
1695200956733183500,0.43518359375,0.05649375915527344,0.0827798843383789,-1.6599555015563965
1695200956743182000,0.44518212890625,0.03630542755126953,-0.03297853469848633,-2.20062255859375
1695200956753180700,0.4551806640625,0.03158092498779297,-0.013061285018920898,-2.2335472106933594
1695200956763179500,0.465179443359375,-0.16584110260009766,-0.060858726501464844,-2.657398223876953
1695200956773178400,0.475178466796875,-0.6646337509155273,0.008755683898925781,-2.9179086685180664
1695200956783177200,0.48517724609375,-0.1384868621826172,-0.149702787399292,-1.6960954666137695
1695200956793176000,0.495176025390625,0.2369832992553711,0.16319656372070312,-1.2774741649627686
1695200956803175200,0.505175048828125,0.24622440338134766,0.15806102752685547,-1.3527657985687256
1695200956813174000,0.515174072265625,0.21732234954833984,0.13866710662841797,-1.3212553262710571
1695200956823172900,0.5251728515625,0.050665855407714844,0.06435775756835938,-1.6050148010253906
1695200956833171700,0.535171630859375,0.0031280517578125,-0.03726649284362793,-1.8933595418930054
1695200956843170600,0.545170654296875,0.20054340362548828,-0.06003308296203613,-2.2912118434906006
1695200956853169400,0.55516943359375,0.7312765121459961,-0.10075020790100098,-2.3006999492645264
1695200956863168300,0.565168212890625,0.7202796936035156,-0.09701347351074219,-1.834155559539795
1695200956873166800,0.575166748046875,0.5172224044799805,-0.03790712356567383,-1.5146067142486572
1695200956883165700,0.585165771484375,0.22516155242919922,-0.12554264068603516,-1.4254571199417114
1695200956893164300,0.595164306640625,0.21590614318847656,-0.09110617637634277,-1.4422589540481567
1695200956903163100,0.6051630859375,0.021236419677734375,-0.38962602615356445,-1.684701681137085
1695200956913161700,0.61516162109375,-0.12686824798583984,-0.47086000442504883,-2.0983340740203857
1695200956923160600,0.62516064453125,-0.14806365966796875,-0.42412734031677246,-2.054783582687378
1695200956933159200,0.6351591796875,-0.5075778961181641,-0.2781836986541748,-2.7357189655303955
1695200956943157800,0.64515771484375,-0.2772865295410156,-0.16266131401062012,-2.655514717102051
1695200956953156600,0.655156494140625,0.13002777099609375,-0.13193273544311523,-2.1715705394744873
1695200956963155200,0.6651552734375,0.029311180114746094,0.02988743782043457,-1.7674710750579834
1695200956973154000,0.675154052734375,0.021101951599121094,0.07198929786682129,-1.8003953695297241
1695200956983153000,0.68515283203125,-0.9533195495605469,-0.369767427444458,-1.664327621459961
1695200956993151700,0.69515185546875,-1.6874866485595703,-0.6912778615951538,-1.7051324844360352
1695200957003150300,0.705150390625,-1.6876506805419922,-0.6718286275863647,-1.74327552318573
1695200957013149200,0.715149169921875,-1.7496719360351562,-0.5807645320892334,-2.1345698833465576
1695200957023148000,0.72514794921875,-1.529848575592041,-0.5736680030822754,-2.3305304050445557
1695200957033146600,0.735146728515625,-1.2516984939575195,-0.6227761507034302,-2.3051955699920654
1695200957043145500,0.7451455078125,-0.8197174072265625,-0.7231185436248779,-2.1250412464141846
1695200957053144000,0.75514404296875,-0.2865934371948242,-0.9656705856323242,-1.389255404472351
1695200957063143000,0.765142822265625,0.004471778869628906,-0.9752482175827026,-0.550369918346405
1695200957073141500,0.7751416015625,-0.5557384490966797,-0.6511595249176025,-0.8526065349578857
1695200957083140400,0.785140380859375,-1.466118335723877,-0.7499933242797852,-1.4447674751281738
1695200957093139200,0.79513916015625,-2.1823129653930664,-1.2841740846633911,-2.0028650760650635
1695200957103137800,0.8051376953125,-1.9440326690673828,-1.9819059371948242,-1.5341697931289673
1695200957113136600,0.81513671875,-1.566676139831543,-1.5257935523986816,-1.2072473764419556
1695200957123135500,0.825135498046875,-1.8376832008361816,-1.136216402053833,-0.4893754720687866
1695200957133134000,0.835134033203125,-1.8765687942504883,-1.0829010009765625,0.01836848258972168
1695200957143133000,0.8451328125,-1.8622102737426758,-1.1208429336547852,0.4554980993270874
1695200957153131500,0.855131591796875,-1.4850273132324219,-0.8435640335083008,-0.3363257646560669
1695200957163130400,0.86513037109375,-1.5071544647216797,-0.7492043972015381,-0.3048675060272217
1695200957173129200,0.875129150390625,-1.4315338134765625,-0.7491953372955322,-0.8281529545783997
1695200957183127800,0.8851279296875,-1.4497308731079102,-0.6393431425094604,-0.8208147883415222
1695200957193126700,0.895126708984375,-2.8423633575439453,-0.9801987409591675,-0.13155221939086914
1695200957203125500,0.90512548828125,-2.844346046447754,-0.8821367025375366,-0.1950540542602539
1695200957213124000,0.9151240234375,-2.78657865524292,-1.4915127754211426,-0.2941216230392456
1695200957223123000,0.925123046875,-1.953575611114502,-2.117119789123535,-0.7102800607681274
1695200957233121500,0.93512158203125,-1.7733497619628906,-2.2680749893188477,-1.2078697681427002
1695200957243120400,0.945120361328125,-1.5553507804870605,-1.806349754333496,-1.474440574645996
1695200957253119200,0.955119140625,-1.757890224456787,-2.326516628265381,-0.22296690940856934
1695200957263117800,0.965117919921875,-2.129976272583008,-2.636094331741333,0.7021710872650146
1695200957273116700,0.97511669921875,-2.0634889602661133,-2.621331214904785,0.4531362056732178
1695200957283115300,0.985115234375,-2.6515536308288574,-2.141850471496582,0.23134756088256836
1695200957293114000,0.995114013671875,-3.704279899597168,-3.2566516399383545,0.9093756675720215
1695200957303112700,1.00511279296875,-4.839165210723877,-4.519661903381348,1.2189445495605469
1695200957313111600,1.015111572265625,-4.490185737609863,-4.734776496887207,-0.18537616729736328
1695200957323110100,1.025110107421875,-3.8394083976745605,-4.5678229331970215,-1.7864603996276855
1695200957333109000,1.03510888671875,-3.550354480743408,-4.550510406494141,-2.278374195098877
1695200957343107600,1.045107666015625,-2.478729248046875,-4.0119757652282715,-3.800239086151123
1695200957353106400,1.0551064453125,-1.7148613929748535,-3.0713725090026855,-4.761177062988281
1695200957363105000,1.06510498046875,-1.7245678901672363,-3.02909255027771,-4.120444297790527
1695200957373103900,1.075103759765625,-1.2159066200256348,-2.8924005031585693,-4.623038291931152
1695200957383102700,1.085102783203125,0.2844099998474121,-3.922086000442505,-1.9123740196228027
1695200957393101300,1.095101318359375,0.8286762237548828,-3.770237445831299,-2.3101248741149902
1695200957403100200,1.10510009765625,1.9781479835510254,-4.708834171295166,-2.0832085609436035
1695200957413098800,1.1150986328125,3.0394630432128906,-4.991835594177246,-3.266477108001709
1695200957423097600,1.12509765625,3.5814123153686523,-4.825520038604736,-3.5131735801696777
1695200957433096400,1.135096435546875,2.165126323699951,-4.1700825691223145,-4.3384809494018555
1695200957443095000,1.145094970703125,2.679670810699463,-3.994115114212036,-4.496701240539551
1695200957453094000,1.155093994140625,1.047780990600586,-4.3835978507995605,-3.925539493560791
1695200957463092500,1.165092529296875,0.4954477548599243,-4.559145927429199,-2.4171605110168457
1695200957473091300,1.17509130859375,0.9450143575668335,-4.277475357055664,-2.455906391143799
1695200957483090200,1.185090087890625,2.0546185970306396,-4.700313091278076,1.4680814743041992
1695200957493088800,1.1950888671875,2.4417731761932373,-4.386347770690918,1.498427391052246
1695200957503087600,1.205087646484375,4.6120405197143555,-3.9059717655181885,2.8539600372314453
1695200957513086500,1.21508642578125,5.247809886932373,-2.828829765319824,1.8855295181274414
1695200957523085300,1.225085205078125,5.559261798858643,-2.5532572269439697,1.9761953353881836
1695200957533084000,1.235083984375,4.370487213134766,-2.3649661540985107,0.1584758758544922
1695200957543082800,1.245082763671875,4.207342147827148,-1.870265007019043,-0.6488275527954102
1695200957553081300,1.255081298828125,3.9508440494537354,-1.1075704097747803,-0.32739830017089844
1695200957563080200,1.265080078125,4.356343746185303,-0.8150529861450195,1.4974937438964844
1695200957573079000,1.2750791015625,4.991052627563477,-1.1437387466430664,2.837527275085449
1695200957583077600,1.28507763671875,5.750888347625732,-0.972867488861084,3.613154411315918
1695200957593076500,1.295076416015625,6.04640007019043,-0.14670801162719727,4.054113388061523
1695200957603075300,1.305075439453125,6.154139518737793,0.10507726669311523,4.226692199707031
1695200957613074000,1.315073974609375,5.73590087890625,0.5021166801452637,4.855599403381348
1695200957623072800,1.32507275390625,3.5271971225738525,-0.41794586181640625,4.813063621520996
1695200957633071600,1.335071533203125,3.1177797317504883,0.0035400390625,4.3687520027160645
1695200957643070500,1.345070556640625,2.6503758430480957,0.35828161239624023,3.5967063903808594
1695200957653069300,1.3550693359375,2.2725260257720947,0.5704517364501953,2.962341785430908
1695200957663068400,1.365068359375,1.8934054374694824,0.5102834701538086,2.946650505065918
1695200957673067300,1.3750673828125,1.8573050498962402,0.29969215393066406,3.266519069671631
1695200957683066000,1.385066162109375,1.9271636009216309,0.3899984359741211,3.920745849609375
1695200957693065000,1.39506494140625,1.9088525772094727,0.5671577453613281,4.374678134918213
1695200957703063800,1.405063720703125,2.002065896987915,0.44180870056152344,4.601699352264404
1695200957713062400,1.4150625,1.927756667137146,-0.006359100341796875,4.6663031578063965
1695200957723061500,1.4250615234375,1.7375240325927734,-0.05883073806762695,4.540095329284668
1695200957733060000,1.43506005859375,1.5259675979614258,0.1787266731262207,4.474167346954346
1695200957743059200,1.44505908203125,1.483322262763977,0.09255075454711914,4.6938910484313965
1695200957753058000,1.45505810546875,1.4448878765106201,0.18463802337646484,4.794402122497559
1695200957763057000,1.465056884765625,1.4862021207809448,0.05595254898071289,4.966682434082031
1695200957773055700,1.4750556640625,1.6489864587783813,0.006068706512451172,5.114092826843262
1695200957783054600,1.4850546875,1.925621747970581,-0.20601129531860352,5.7418413162231445
1695200957793053400,1.495053466796875,1.7434443235397339,-0.4999532699584961,5.878799915313721
1695200957803052300,1.50505224609375,1.4994556903839111,-0.773533821105957,5.666727066040039
1695200957813051100,1.515051025390625,1.442167043685913,-0.749788761138916,5.685876369476318
1695200957823050000,1.525050048828125,0.6145840287208557,-1.3543376922607422,4.425290107727051
1695200957833048800,1.535048828125,-0.056823015213012695,-1.2110505104064941,3.392394542694092
1695200957843047700,1.545047607421875,-0.6633173227310181,-0.9735040664672852,2.600609302520752
1695200957853046500,1.555046630859375,-0.7330678701400757,-0.9544258117675781,2.614354133605957
1695200957863045400,1.56504541015625,-0.5840533375740051,-0.7051329612731934,2.1951394081115723
1695200957873044200,1.575044189453125,0.0967334508895874,-0.511500358581543,2.426884174346924
1695200957883043000,1.58504296875,0.8194537162780762,-0.39434003829956055,2.5318470001220703
1695200957893042000,1.5950419921875,1.3376471996307373,-0.31026220321655273,2.470606803894043
1695200957903040800,1.605040771484375,1.602726936340332,-0.40770483016967773,2.504340648651123
1695200957913039600,1.61503955078125,1.7200931310653687,-0.5732884407043457,2.353254795074463
1695200957923038500,1.62503857421875,1.6965899467468262,-0.569861888885498,1.9715747833251953
1695200957933037000,1.635037109375,1.4712162017822266,-0.4955477714538574,1.4439973831176758
1695200957943036000,1.645035888671875,1.100059986114502,-0.3546304702758789,1.0333237648010254
1695200957953034500,1.655034423828125,0.6874209046363831,-0.21692943572998047,0.7663984298706055
1695200957963033300,1.665033447265625,0.2643754780292511,-0.1772294044494629,0.7045063972473145
1695200957973032000,1.675031982421875,0.14412012696266174,-0.2328023910522461,0.7572965621948242
1695200957983030800,1.68503076171875,0.5268835425376892,-0.22367334365844727,0.9220471382141113
1695200957993029400,1.695029296875,1.0390605926513672,-0.33757972717285156,1.307748794555664
1695200958003028200,1.7050283203125,1.5926330089569092,-0.4427614212036133,1.651123046875
1695200958013027000,1.715027099609375,1.597121000289917,-0.4313821792602539,1.6678404808044434
1695200958023025700,1.725025634765625,2.2913684844970703,-0.33998680114746094,1.827989101409912
1695200958033024500,1.7350244140625,2.851928472518921,-0.0869741439819336,1.7029075622558594
1695200958043023400,1.7450234375,2.587069511413574,-0.08849716186523438,1.7697248458862305
1695200958053022000,1.75502197265625,2.148932933807373,-0.026088714599609375,1.8110785484313965
1695200958063020800,1.765020751953125,1.7308990955352783,0.04154396057128906,1.677121639251709
1695200958073019400,1.775019287109375,1.3861279487609863,0.1036844253540039,1.562779426574707
1695200958083018200,1.785018310546875,1.0649163722991943,0.12407827377319336,1.623403549194336
1695200958093017000,1.79501708984375,1.0327383279800415,0.11960554122924805,1.615056037902832
1695200958103015700,1.805015625,0.848533034324646,0.19376707077026367,1.695509910583496
1695200958113014500,1.8150146484375,0.8259264230728149,0.17957544326782227,1.6739726066589355
1695200958123013400,1.825013427734375,1.07447350025177,0.18748760223388672,1.3857665061950684
1695200958133012200,1.83501220703125,1.0566951036453247,0.16570758819580078,1.3541202545166016
1695200958143010800,1.8450107421875,1.2858549356460571,-0.09307622909545898,1.0106220245361328
1695200958153009700,1.855009765625,1.294791579246521,-0.32418298721313477,0.7498183250427246
1695200958163008300,1.86500830078125,1.2233096361160278,-0.6478095054626465,0.5002102851867676
1695200958173007000,1.875007080078125,1.0937561988830566,-0.7796120643615723,0.20194244384765625
1695200958183005700,1.885005615234375,0.911805272102356,-0.7173590660095215,-0.017490863800048828
1695200958193004500,1.895004638671875,0.8051312565803528,-0.551429271697998,-0.06406068801879883
1695200958203003400,1.90500341796875,0.8008313775062561,-0.39458656311035156,0.029254436492919922
1695200958213002000,1.915001953125,0.8090025186538696,-0.31061887741088867,0.26657819747924805
1695200958223000800,1.925000732421875,0.971535861492157,-0.2561945915222168,0.4655132293701172
1695200958232999700,1.934999755859375,1.1773536205291748,-0.23131990432739258,0.4839510917663574
1695200958242998300,1.944998291015625,1.5340393781661987,-0.20247697830200195,0.2517366409301758
1695200958252997000,1.9549970703125,1.5640015602111816,-0.2088007926940918,0.24425268173217773
1695200958262996000,1.964995849609375,2.7296533584594727,-0.2461562156677246,-0.19701099395751953
1695200958272994600,1.97499462890625,3.2687182426452637,-0.23865699768066406,-0.3300971984863281
1695200958282993400,1.984993408203125,3.29312801361084,-0.24740171432495117,-0.34056520462036133
1695200958292992000,1.994991943359375,3.909024715423584,-0.1011967658996582,-0.18914365768432617
1695200958302990800,2.004990966796875,3.908393383026123,-0.032190799713134766,-0.019057273864746094
1695200958312989400,2.014989501953125,3.776313304901123,-0.029616832733154297,0.20630168914794922
1695200958322988300,2.02498828125,3.751666307449341,-0.03471946716308594,0.19837713241577148
1695200958332987000,2.03498681640625,3.3562967777252197,-0.019832611083984375,0.09961938858032227
1695200958342985700,2.04498583984375,3.32058048248291,-0.02785968780517578,0.08768796920776367
1695200958352984300,2.054984375,3.0528385639190674,-0.00019168853759765625,-0.05124187469482422
1695200958362983200,2.064983154296875,2.781306028366089,0.19150733947753906,-0.1978921890258789
1695200958372981800,2.074981689453125,2.8875484466552734,0.23880386352539062,0.03618001937866211
1695200958382980600,2.084980712890625,2.8925671577453613,0.22154474258422852,0.47891902923583984
1695200958392979200,2.094979248046875,3.139525890350342,0.2786111831665039,0.7914528846740723
1695200958402978000,2.10497802734375,3.0780694484710693,0.26222705841064453,0.7706747055053711
1695200958412977000,2.114976806640625,3.471104621887207,0.3360323905944824,0.9848542213439941
1695200958422975500,2.1249755859375,4.277467250823975,0.29505300521850586,0.7240967750549316
1695200958432974300,2.134974365234375,3.921941041946411,-0.06917142868041992,-0.0010290145874023438
1695200958442973000,2.144972900390625,3.2523701190948486,-0.18937301635742188,-0.8275747299194336
1695200958452971800,2.1549716796875,2.5060291290283203,0.012280464172363281,-1.156395435333252
1695200958462970400,2.164970458984375,1.9212416410446167,0.3889327049255371,-0.9200572967529297
1695200958472969200,2.17496923828125,1.8140101432800293,0.520237922668457,-0.39539432525634766
1695200958482968000,2.184968017578125,1.686406135559082,0.481534481048584,-0.42296266555786133
1695200958492967000,2.194966796875,1.9476056098937988,0.7052030563354492,-0.3251972198486328
1695200958502965500,2.204965576171875,1.6322252750396729,0.9243927001953125,-0.8101673126220703
1695200958512964400,2.21496435546875,0.93821120262146,1.1240644454956055,-1.318498134613037
1695200958522963000,2.224962890625,0.013014078140258789,1.0681791305541992,-1.576413631439209
1695200958532961800,2.2349619140625,-0.0812004804611206,1.023773193359375,-1.6046147346496582
1695200958542960600,2.244960693359375,-5.540231227874756,1.177877426147461,-1.6060891151428223
1695200958552959200,2.254959228515625,-5.569300651550293,1.1526975631713867,-1.6265244483947754
1695200958562958000,2.2649580078125,-1.2727911472320557,2.214718818664551,-1.7377328872680664
1695200958572956700,2.274956787109375,1.5741255283355713,1.7694368362426758,-1.2322354316711426
1695200958582955500,2.28495556640625,2.774538993835449,1.2277393341064453,-0.9097566604614258
1695200958592954400,2.294954345703125,2.782101631164551,1.196052074432373,-0.943610668182373
1695200958602953000,2.304952880859375,1.8455003499984741,1.1990056037902832,-0.9506640434265137
1695200958612951800,2.314951904296875,0.9772467613220215,1.3176932334899902,-0.9159631729125977
1695200958622950700,2.32495068359375,0.39781856536865234,1.0034594535827637,0.14420080184936523
1695200958632949200,2.33494921875,0.8697011470794678,0.7178611755371094,0.4839634895324707
1695200958642948000,2.344947998046875,1.7570077180862427,1.2245044708251953,-0.18768644332885742
1695200958652946700,2.35494677734375,2.239503860473633,1.357527732849121,-0.5884203910827637
1695200958662945500,2.364945556640625,1.7984628677368164,0.8308439254760742,-0.7186946868896484
1695200958672944600,2.374944580078125,0.8299167156219482,0.46736955642700195,-1.3003926277160645
1695200958682943500,2.384943603515625,-0.8151243925094604,-0.12836170196533203,-2.2707152366638184
1695200958692942300,2.3949423828125,-2.260751485824585,-0.16981220245361328,-4.067248821258545
1695200958702941400,2.40494140625,-2.4945101737976074,-0.2723727226257324,-6.065840244293213
1695200958712940300,2.414940185546875,-0.9695475101470947,-1.1966676712036133,-7.939465522766113
1695200958722939400,2.424939453125,2.1236815452575684,-2.8902597427368164,-7.938413143157959
1695200958732938500,2.4349384765625,3.857037305831909,-5.5055952072143555,-5.83800745010376
1695200958742937300,2.444937255859375,5.597686767578125,-5.417268753051758,-3.5515799522399902
1695200958752936400,2.4549365234375,10.288616180419922,-4.590465545654297,4.771519184112549
1695200958762935600,2.464935546875,8.250967979431152,-1.7414302825927734,14.568078994750977
1695200958772934700,2.4749345703125,8.32222843170166,-1.5826845169067383,14.940570831298828
1695200958782933800,2.484933837890625,-13.850415229797363,2.832610607147217,8.515036582946777
1695200958792932600,2.4949326171875,-13.831310272216797,2.911407947540283,8.738418579101562
1695200958802931700,2.504931640625,-1.8849577903747559,-1.1721200942993164,-3.080718994140625
1695200958812930800,2.514930908203125,2.8958511352539062,-0.5313959121704102,-5.220199108123779
1695200958822930000,2.524929931640625,8.30648136138916,-1.4433746337890625,1.8827018737792969
1695200958832929000,2.534928955078125,8.537166595458984,-1.3794612884521484,2.1751248836517334
1695200958842927900,2.544927978515625,3.637643337249756,0.8999347686767578,4.931737899780273
1695200958852927000,2.554927001953125,0.3870598077774048,0.25469303131103516,4.5358147621154785
1695200958862926000,2.564926025390625,0.7168362140655518,-0.4717988967895508,2.823943614959717
1695200958872925200,2.57492529296875,2.620546340942383,-1.321406364440918,0.09884786605834961
1695200958882924300,2.58492431640625,4.6804375648498535,-1.7372961044311523,-2.4651098251342773
1695200958892923400,2.59492333984375,6.27066707611084,-0.8905544281005859,-2.9121150970458984
1695200958902922200,2.604922119140625,5.3867106437683105,-0.6450014114379883,-0.278994083404541
1695200958912921300,2.61492138671875,0.19842243194580078,-0.1730632781982422,1.886040210723877
1695200958922920400,2.62492041015625,-0.9373875856399536,0.18928813934326172,0.7982704639434814
1695200958932919600,2.63491943359375,1.4125455617904663,-0.32330989837646484,1.54860258102417
1695200958942918700,2.644918701171875,4.28963041305542,-1.2132654190063477,3.851529598236084
1695200958952917500,2.65491748046875,3.9998064041137695,-2.9347400665283203,3.578742027282715
1695200958962916600,2.66491650390625,4.014902114868164,-2.9333906173706055,3.61421275138855
1695200958972915500,2.67491552734375,0.5126972794532776,-4.005270004272461,0.8750727772712708
1695200958982914300,2.684914306640625,-0.31398510932922363,-5.668585777282715,3.6873934268951416
1695200958992913200,2.6949130859375,1.1280879974365234,-4.749527931213379,3.599717855453491
1695200959002912000,2.704912109375,2.5997159481048584,-3.436936378479004,3.011322498321533
1695200959012910800,2.714910888671875,2.208914279937744,-3.5509214401245117,2.3438143730163574
1695200959022909700,2.72490966796875,2.1255156993865967,-3.542365074157715,2.3481621742248535
1695200959032908300,2.734908203125,1.8485054969787598,-5.5314531326293945,1.546194314956665
1695200959042907100,2.7449072265625,0.17866355180740356,-4.207622528076172,2.175858974456787
1695200959052905700,2.75490576171875,2.726853847503662,-1.3623886108398438,8.852378845214844
1695200959062904600,2.764904541015625,1.1550942659378052,3.181966781616211,3.004356622695923
1695200959072903200,2.774903076171875,2.5814037322998047,-0.8993940353393555,4.0767822265625
1695200959082902000,2.784902099609375,2.8822503089904785,0.4651641845703125,0.7479612827301025
1695200959092900600,2.794900634765625,2.750180959701538,0.44973278045654297,0.6005336046218872
1695200959102899500,2.8048994140625,4.639944553375244,1.716695785522461,-1.782956838607788
1695200959112898000,2.81489794921875,4.097484588623047,2.5877857208251953,-2.55973219871521
1695200959122897000,2.82489697265625,1.5959508419036865,3.970341205596924,-4.399908065795898
1695200959132895700,2.834895751953125,0.10574108362197876,4.850683212280273,-4.030691623687744
1695200959142894300,2.844894287109375,-0.008949697017669678,4.816125869750977,-4.168385028839111
1695200959152893200,2.85489306640625,2.3091742992401123,6.662092685699463,-0.05064678192138672
1695200959162891800,2.864891845703125,1.8602945804595947,7.04583740234375,1.1518888473510742
1695200959172890600,2.874890625,1.8306241035461426,7.024593353271484,1.071906566619873
1695200959182889200,2.88488916015625,-0.16472166776657104,6.164450645446777,-0.014862537384033203
1695200959192888000,2.89488818359375,-1.1554242372512817,4.71096134185791,-3.8763771057128906
1695200959202887000,2.904886962890625,-1.6224243640899658,2.4860196113586426,-5.15965461730957
1695200959212885500,2.914885498046875,-1.1135386228561401,1.7344346046447754,-3.951831817626953
1695200959222884400,2.92488427734375,-1.0448846817016602,1.770979404449463,-3.207719326019287
1695200959232883200,2.93488330078125,-2.387326240539551,0.3927574157714844,-4.637382507324219
1695200959242881800,2.9448818359375,-1.4173493385314941,0.48829078674316406,-4.287289142608643
1695200959252880600,2.954880615234375,8.390192031860352,-3.4584150314331055,-1.3725162744522095
1695200959262879500,2.96487939453125,6.360438823699951,-2.927946090698242,-1.2798343896865845
1695200959272878000,2.974878173828125,4.157705783843994,-0.6080045700073242,-1.6441543102264404
1695200959282877000,2.984876953125,3.7165379524230957,1.9387640953063965,-3.205720901489258
1695200959292875500,2.99487548828125,0.2643711566925049,-5.874802589416504,7.367708683013916
1695200959302874400,3.004874267578125,1.518835425376892,-7.345832824707031,14.256651878356934
1695200959312873200,3.014873291015625,2.1392524242401123,0.7247495651245117,5.372441291809082
1695200959322871800,3.024871826171875,2.3023173809051514,3.67741060256958,0.8573868274688721
1695200959332870700,3.03487060546875,2.421283006668091,3.657060146331787,0.797982931137085
1695200959342869500,3.044869384765625,1.0533161163330078,-2.115414619445801,0.701282262802124
1695200959352868000,3.0548681640625,0.6205079555511475,-0.6408586502075195,-0.7525712251663208
1695200959362867000,3.064866943359375,1.2548874616622925,-0.26360416412353516,-0.5159549713134766
1695200959372865800,3.07486572265625,0.9068790674209595,-0.6064004898071289,-1.5989826917648315
1695200959382864400,3.084864501953125,-0.2074146270751953,-0.9872150421142578,-2.2122654914855957
1695200959392863200,3.09486328125,0.16948533058166504,-0.7705812454223633,-0.7768493890762329
1695200959402861800,3.10486181640625,0.4867817163467407,-0.996917724609375,0.9365725517272949
1695200959412860700,3.114860595703125,2.244610548019409,-0.685150146484375,1.8039467334747314
1695200959422859500,3.124859619140625,1.4688193798065186,0.1629495620727539,2.032505512237549
1695200959432858000,3.134858154296875,1.4876941442489624,0.17550373077392578,2.0887937545776367
1695200959442856700,3.144856689453125,2.0836777687072754,0.7114019393920898,1.9253771305084229
1695200959452855600,3.15485546875,2.0837905406951904,0.7799797058105469,0.7370491027832031
1695200959462854100,3.164854248046875,1.730534315109253,-0.022454261779785156,-1.257094144821167
1695200959472853000,3.17485302734375,2.304960250854492,-0.2696409225463867,-0.9946714639663696
1695200959482851600,3.1848515625,3.1099021434783936,0.30100250244140625,1.2150747776031494
1695200959492850400,3.194850341796875,3.0868523120880127,0.3097667694091797,1.2437279224395752
1695200959502849000,3.20484912109375,1.5431766510009766,0.3577737808227539,0.5906832218170166
1695200959512848000,3.214847900390625,2.136017322540283,1.0753679275512695,1.7849876880645752
1695200959522846500,3.224846435546875,2.2431704998016357,1.1854324340820312,0.7475097179412842
1695200959532845300,3.23484521484375,1.7571649551391602,0.32157039642333984,0.868523120880127
1695200959542844200,3.24484423828125,1.7079052925109863,0.287353515625,-0.7732124328613281
1695200959552842800,3.2548427734375,1.993776798248291,-0.7322902679443359,0.2027437686920166
1695200959562841600,3.264841552734375,1.9666825532913208,-0.7258968353271484,0.2240140438079834
1695200959572840200,3.274840087890625,1.8846933841705322,-1.2677764892578125,2.6431844234466553
1695200959582839000,3.284839111328125,-19.056127548217773,10.575846672058105,-27.29343032836914
1695200959592838000,3.294837890625,-2.600132942199707,6.547060489654541,-12.190773010253906
1695200959602836500,3.30483642578125,13.712285995483398,-9.836517333984375,4.305168151855469
1695200959612835300,3.31483544921875,11.895082473754883,-10.351943016052246,6.852344036102295
1695200959622834000,3.324833984375,-1.1491390466690063,0.5658140182495117,3.7010610103607178
1695200959632832800,3.334832763671875,-2.752901077270508,0.6925725936889648,5.778756141662598
1695200959642831600,3.34483154296875,11.752677917480469,-1.3049802780151367,7.258862495422363
1695200959652830200,3.354830322265625,11.750027656555176,-1.300048828125,7.3010945320129395
1695200959662829000,3.3648291015625,-0.9172927737236023,2.025753974914551,3.3136630058288574
1695200959672828000,3.374827880859375,1.8332195281982422,2.7105607986450195,2.430257797241211
1695200959682826500,3.384826416015625,0.5032861828804016,1.1589584350585938,1.5541300773620605
1695200959692825300,3.394825439453125,-0.37196123600006104,1.85508394241333,-0.24644464254379272
1695200959702824000,3.404823974609375,0.8317666053771973,2.178539276123047,-2.2800283432006836
1695200959712822800,3.41482275390625,0.46375229954719543,0.3276500701904297,-4.80291748046875
1695200959722821400,3.4248212890625,1.1700342893600464,-0.17133140563964844,-4.450925350189209
1695200959732820200,3.4348203125,2.3461079597473145,2.3744473457336426,-1.9565317630767822
1695200959742819000,3.444819091796875,1.7618077993392944,1.0630254745483398,0.14344900846481323
1695200959752818000,3.45481787109375,3.1605608463287354,-0.11099433898925781,-0.07995522022247314
1695200959762816800,3.464816650390625,1.7498822212219238,-1.1360492706298828,-3.134141206741333
1695200959772815600,3.474815673828125,1.8526103496551514,-1.2415847778320312,-1.0095083713531494
1695200959782814500,3.484814453125,0.2681539058685303,0.4356422424316406,-0.4857340157032013
1695200959792813300,3.494813232421875,1.667579174041748,0.45908355712890625,-0.15266913175582886
1695200959802812200,3.504812255859375,2.1436874866485596,-0.4584789276123047,1.1753146648406982
1695200959812811000,3.51481103515625,2.1917977333068848,-0.4645071029663086,1.1599550247192383
1695200959822809900,3.524809814453125,1.893227219581604,-0.1786489486694336,2.610522747039795
1695200959832808700,3.53480859375,2.017345905303955,0.36673927307128906,2.60066556930542
1695200959842807600,3.5448076171875,2.036212205886841,0.36335086822509766,2.5864500999450684
1695200959852806400,3.554806396484375,2.1716794967651367,-0.5518941879272461,0.43154430389404297
1695200959862805500,3.564805419921875,1.5856943130493164,-0.7419748306274414,-2.371885061264038
1695200959872804400,3.574804443359375,1.0673567056655884,-1.1179208755493164,-3.1312389373779297
1695200959882803200,3.58480322265625,2.3189749717712402,-0.7978420257568359,-1.3281540870666504
1695200959892802000,3.594802001953125,2.4147398471832275,0.20879745483398438,0.06018424034118652
1695200959902801000,3.60480078125,1.7896825075149536,1.2393159866333008,1.6203374862670898
1695200959912799700,3.6147998046875,1.7741813659667969,1.9093565940856934,1.90054190158844
1695200959922798600,3.624798583984375,1.1698648929595947,1.6785411834716797,1.3510963916778564
1695200959932797400,3.63479736328125,1.3050503730773926,1.591552734375,1.1044933795928955
1695200959942796300,3.64479638671875,1.8422677516937256,1.7198214530944824,0.48942625522613525
1695200959952795100,3.654795166015625,1.83451509475708,1.7191681861877441,0.47883284091949463
1695200959963437600,3.6654375,2.56813907623291,0.5793876647949219,0.10948765277862549
1695200959973436400,3.6754365234375,2.2846298217773438,0.09418296813964844,0.7379035949707031
1695200959983435300,3.685435302734375,1.9611706733703613,0.26348209381103516,-0.09992969036102295
1695200959993434000,3.69543408203125,2.0453362464904785,0.05220222473144531,-0.8339453339576721
1695200960003433000,3.705432861328125,1.6934435367584229,-0.10270118713378906,-1.0124937295913696
1695200960013431800,3.715431884765625,1.3164275884628296,0.4645109176635742,-0.7756414413452148
1695200960023430700,3.7254306640625,0.714952826499939,1.0253591537475586,-0.8515669107437134
1695200960033429500,3.735429443359375,0.6825594902038574,0.6259269714355469,-1.4285531044006348
1695200960043428400,3.745428466796875,2.49253249168396,2.562685012817383,-2.3554611206054688
1695200960053427200,3.75542724609375,-4.349164009094238,0.7735996246337891,-3.588972568511963
1695200960063426000,3.765426025390625,5.6481032371521,-2.715456008911133,-0.2281476855278015
1695200960073424600,3.775424560546875,1.0315033197402954,0.3618335723876953,-0.20152467489242554
1695200960083423500,3.785423583984375,2.442796230316162,-2.654825210571289,2.462583303451538
1695200960093422300,3.79542236328125,3.5700340270996094,-3.5123043060302734,4.842278480529785
1695200960103421000,3.8054208984375,3.5337438583374023,-4.312142372131348,5.685299396514893
1695200960113419800,3.815419677734375,3.6246566772460938,-4.63726806640625,4.108918190002441
1695200960123418400,3.82541845703125,3.8930060863494873,-4.480812072753906,0.3855140805244446
1695200960133417200,3.835417236328125,2.4462294578552246,-4.089948654174805,0.8029361367225647
1695200960143415800,3.845415771484375,2.0550222396850586,-2.9250450134277344,1.5186532735824585
1695200960153414700,3.85541455078125,6.876193046569824,-0.38004112243652344,-6.384608268737793
1695200960163413200,3.865413330078125,-0.22117042541503906,-0.1414203643798828,2.5613794326782227
1695200960173412000,3.875412109375,0.3849083185195923,0.08707618713378906,2.8875956535339355
1695200960183410700,3.88541064453125,1.3254077434539795,-0.7117691040039062,1.0193990468978882
1695200960193409500,3.895409423828125,-0.4964819550514221,-1.3691911697387695,-1.8555843830108643
1695200960203408400,3.905408447265625,-1.1444671154022217,-1.1311988830566406,-2.1607606410980225
1695200960213407000,3.915406982421875,0.4012778401374817,-0.4913797378540039,-0.49159857630729675
1695200960223405800,3.92540576171875,1.381309986114502,-0.1453237533569336,0.9549005627632141
1695200960233404700,3.93540478515625,0.10541635751724243,-0.4140434265136719,0.07671469449996948
1695200960243403300,3.9454033203125,-0.5897600650787354,-1.9032878875732422,-0.5907167196273804
1695200960253402000,3.955402099609375,-2.0607712268829346,-0.6338367462158203,-2.123610019683838
1695200960263401000,3.96540087890625,-7.623058795928955,-1.3107776641845703,1.9025523662567139
1695200960273399600,3.975399658203125,12.340351104736328,-0.8539924621582031,5.268343925476074
1695200960283398400,3.9853984375,8.243673324584961,6.018540859222412,-12.578434944152832
1695200960293397200,3.995397216796875,3.58506441116333,2.5206351280212402,-2.663513422012329
1695200960303395800,4.005395751953125,0.8520449995994568,4.784854888916016,3.370238780975342
1695200960313394700,4.015394775390625,8.50938606262207,4.044473648071289,0.3886216878890991
1695200960323393300,4.025393310546875,4.706979274749756,3.2961225509643555,-0.6890692710876465
1695200960333392100,4.03539208984375,3.577139377593994,3.281881332397461,0.15895795822143555
1695200960343391000,4.045390869140625,-1.0386474132537842,-1.0631513595581055,2.1438965797424316
1695200960353389800,4.055389892578125,-2.1521544456481934,-0.94873046875,-1.592580795288086
1695200960363388400,4.065388427734375,-0.6938856244087219,-4.477475166320801,-1.0055625438690186
1695200960373387300,4.07538720703125,0.41604480147361755,-5.722862243652344,-0.34637773036956787
1695200960383386000,4.08538623046875,5.467011451721191,-3.4694595336914062,-0.9943094253540039
1695200960393384700,4.095384765625,6.130386829376221,-2.3238353729248047,-0.9380656480789185
1695200960403383600,4.105383544921875,-0.21563804149627686,1.4633283615112305,0.5441747307777405
1695200960413382100,4.115382080078125,-0.5754854083061218,4.1058125495910645,-0.08985459804534912
1695200960423381000,4.125381103515625,-0.4043028950691223,4.029504776000977,-0.29372110962867737
1695200960433379600,4.135379638671875,1.5646326541900635,2.386101722717285,-2.3268818855285645
1695200960443378400,4.14537841796875,2.4581172466278076,-0.20615100860595703,-2.283194065093994
1695200960453377000,4.155376953125,1.7695618867874146,-1.1748046875,-1.628537654876709
1695200960463376000,4.1653759765625,-0.22066456079483032,-0.5554389953613281,-4.9755988121032715
1695200960473374500,4.17537451171875,0.049459218978881836,-0.8597259521484375,-1.2094931602478027
1695200960483373300,4.185373291015625,1.7621386051177979,-0.2836008071899414,1.2034471035003662
1695200960493372000,4.195371826171875,2.6466283798217773,-0.6055688858032227,4.139873504638672
1695200960503370800,4.205370849609375,3.0540478229522705,-1.0508050918579102,5.17338752746582
1695200960513369600,4.21536962890625,3.378577709197998,-0.4786081314086914,2.8301877975463867
1695200960523368200,4.2253681640625,2.2438440322875977,0.18297767639160156,0.39615362882614136
1695200960533367000,4.235366943359375,0.9923170804977417,0.1602773666381836,-0.6798050999641418
1695200960543365600,4.24536572265625,0.8254503607749939,-0.1239023208618164,-0.9772407412528992
1695200960553364500,4.255364501953125,1.2622582912445068,-0.2609262466430664,-0.9423412680625916
1695200960563363000,4.265363037109375,1.4564180374145508,-0.0703878402709961,-0.762924313545227
1695200960573362000,4.27536181640625,1.2924647331237793,0.25325870513916016,-0.32155081629753113
1695200960583360500,4.285360595703125,1.4091936349868774,0.30542755126953125,0.1784612536430359
1695200960593359400,4.295359375,1.730156421661377,0.12242698669433594,0.4409920573234558
1695200960603358200,4.305358154296875,1.995837926864624,-0.18003082275390625,0.6903372406959534
1695200960613356800,4.315356689453125,1.8821885585784912,-0.23299407958984375,0.6957398653030396
1695200960623355600,4.325355712890625,1.5415773391723633,-0.02701091766357422,0.46468645334243774
1695200960633354500,4.3353544921875,1.5207157135009766,0.2054281234741211,0.19140839576721191
1695200960643353000,4.34535302734375,1.66786527633667,0.24630451202392578,0.028802871704101562
1695200960653352000,4.35535205078125,1.6848938465118408,0.08144187927246094,-0.05590707063674927
1695200960663350800,4.365350830078125,1.6039953231811523,-0.10729789733886719,-0.15123242139816284
1695200960673349400,4.375349365234375,1.5257987976074219,-0.1668415069580078,-0.27604877948760986
1695200960683348200,4.38534814453125,1.4708139896392822,-0.07578468322753906,-0.2527158856391907
1695200960693346800,4.395346923828125,1.460837483406067,0.026887893676757812,-0.07040226459503174
1695200960703345700,4.405345703125,1.6667869091033936,0.15099239349365234,0.2667776346206665
1695200960713344300,4.41534423828125,1.8009958267211914,0.23195171356201172,0.443683385848999
1695200960723343000,4.425343017578125,1.6591663360595703,0.15981769561767578,0.46626561880111694
1695200960733342000,4.435342041015625,1.552285075187683,0.006508827209472656,0.3092344403266907
1695200960743340800,4.4453408203125,1.759497046470642,-0.09171390533447266,-0.08638453483581543
1695200960753339400,4.45533935546875,1.6227285861968994,-0.09421348571777344,-0.2652885317802429
1695200960763338200,4.465338134765625,1.1828880310058594,-0.012961387634277344,-0.20530784130096436
1695200960773337000,4.475337158203125,1.1969413757324219,0.06332683563232422,-0.12454122304916382
1695200960783335700,4.485335693359375,1.4436781406402588,0.10346603393554688,-0.00004744529724121094
1695200960793334500,4.49533447265625,1.578904628753662,0.08602142333984375,0.07304930686950684
1695200960803333400,4.50533349609375,1.553281545639038,0.05427265167236328,0.04401111602783203
1695200960813332200,4.515332275390625,1.2513872385025024,-0.0684671401977539,0.07258665561676025
1695200960823331000,4.5253310546875,1.70860755443573,-0.026218414306640625,0.05174744129180908
1695200960833330200,4.535330078125,2.013500690460205,0.16647624969482422,0.1695418357849121
1695200960843329000,4.5453291015625,1.794611930847168,0.20595073699951172,0.4836268424987793
1695200960853328100,4.555328125,1.5876730680465698,0.14260387420654297,0.5607684850692749
1695200960863327000,4.565326904296875,1.858870029449463,0.12248611450195312,0.4530380964279175
1695200960873326000,4.575326171875,2.081785202026367,0.06410980224609375,0.14745569229125977
1695200960883325200,4.5853251953125,1.7157889604568481,0.005888938903808594,-0.022566556930541992
1695200960893324300,4.59532421875,1.5326812267303467,0.0676116943359375,0.023032069206237793
1695200960903323100,4.6053232421875,1.5927332639694214,0.17715930938720703,0.09250295162200928
1695200960913322200,4.615322265625,1.737758994102478,0.2124004364013672,0.3267015218734741
1695200960923321300,4.6253212890625,1.7978676557540894,0.1664104461669922,0.7735705375671387
1695200960933320400,4.635320556640625,2.2641544342041016,0.18785381317138672,0.7642368078231812
1695200960943319300,4.6453193359375,2.2406582832336426,0.29343223571777344,0.65997314453125
1695200960953318400,4.655318359375,1.8425788879394531,0.2200298309326172,0.3520970344543457
1695200960963317500,4.6653173828125,1.6376749277114868,0.03694343566894531,-0.0714731216430664
1695200960973316600,4.675316650390625,1.5536572933197021,-0.019120216369628906,-0.2756052017211914
1695200960983315700,4.685315673828125,1.384331226348877,0.11865711212158203,-0.07820498943328857
1695200960993314800,4.695314697265625,1.5540269613265991,0.24660778045654297,0.32079851627349854
1695200961003313700,4.705313720703125,1.173921823501587,0.1663055419921875,0.8209360837936401
1695200961013312800,4.715312744140625,1.7353910207748413,0.07911109924316406,1.0125936269760132
1695200961023312000,4.725311767578125,1.9294356107711792,0.1285552978515625,0.5405791997909546
1695200961033311000,4.73531103515625,1.5927907228469849,0.058585166931152344,0.20496106147766113
1695200961043310000,4.74531005859375,1.244077444076538,-0.07320213317871094,-0.45652931928634644
1695200961053309000,4.755308837890625,1.4611523151397705,-0.04928302764892578,-1.0428184270858765
1695200961063308000,4.76530810546875,1.579695224761963,0.2471780776977539,-0.7993215918540955
1695200961073307100,4.77530712890625,1.614620566368103,0.46166133880615234,-0.3790549039840698
1695200961083306200,4.78530615234375,1.6083486080169678,0.46259117126464844,-0.37010645866394043
1695200961093305000,4.79530517578125,1.6777044534683228,0.02997589111328125,0.17102265357971191
1695200961103304200,4.80530419921875,1.4078861474990845,-0.15137386322021484,0.2559179663658142
1695200961113303000,4.815302978515625,1.396535038948059,-0.15110206604003906,0.25850963592529297
1695200961123302000,4.825302001953125,1.4413292407989502,0.016508102416992188,-0.20828890800476074
1695200961133301000,4.835301025390625,1.4273463487625122,0.016554832458496094,-0.2077263593673706
1695200961143299800,4.8452998046875,1.3398127555847168,0.00704193115234375,-0.11335843801498413
1695200961153298400,4.85529833984375,1.099723219871521,-0.09131431579589844,-0.2486441731452942
1695200961163297300,4.86529736328125,0.661381721496582,-0.046387672424316406,-0.23680901527404785
1695200961173296000,4.875296142578125,0.6467588543891907,-0.047186851501464844,-0.24386990070343018
1695200961183294700,4.885294677734375,1.3477404117584229,0.07875442504882812,-0.044029295444488525
1695200961193293300,4.895293212890625,2.1924383640289307,0.49898338317871094,-0.01545172929763794
1695200961203292200,4.905292236328125,1.3036078214645386,0.28499507904052734,0.1003260612487793
1695200961213291000,4.915291015625,1.5658146142959595,0.07312679290771484,-0.2820305824279785
1695200961223289600,4.92528955078125,1.546405553817749,0.07130241394042969,-0.29669272899627686
1695200961233288400,4.935288330078125,1.8368496894836426,0.023639678955078125,-0.3260538578033447
1695200961243287000,4.945287109375,1.5191090106964111,0.07897758483886719,0.24899077415466309
1695200961253286000,4.955285888671875,1.7427760362625122,0.1368112564086914,0.0570378303527832
1695200961263284500,4.965284423828125,1.7233272790908813,0.13471031188964844,0.042063236236572266
1695200961273283300,4.975283447265625,1.295011043548584,0.3190145492553711,-0.022701740264892578
1695200961283282000,4.985281982421875,1.273001790046692,0.3161592483520508,-0.042266011238098145
1695200961293280800,4.99528076171875,1.1488162279129028,0.16698455810546875,-0.06600499153137207
1695200961303279600,5.005279541015625,1.5672645568847656,0.08232688903808594,0.14256417751312256
1695200961313278200,5.0152783203125,1.5436855554580688,0.0789642333984375,0.12157809734344482
1695200961323277000,5.025277099609375,1.4285523891448975,0.03232097625732422,0.2701030969619751
1695200961333275600,5.035275634765625,1.404567837715149,0.028520584106445312,0.247320294380188
1695200961343274500,5.0452744140625,1.8022871017456055,0.23280906677246094,0.27888059616088867
1695200961353273300,5.0552734375,1.7793292999267578,0.2287921905517578,0.2559835910797119
1695200961363272000,5.06527197265625,2.019667625427246,0.37335777282714844,0.5190026760101318
1695200961373270800,5.075270751953125,2.0640885829925537,0.6476345062255859,1.0912320613861084
1695200961383269600,5.08526953125,2.414066791534424,0.40377044677734375,1.1507443189620972
1695200961393268500,5.0952685546875,2.403271198272705,0.4029712677001953,1.149075984954834
1695200961403267000,5.10526708984375,2.658503532409668,0.2501087188720703,1.135754942893982
1695200961413266000,5.115265869140625,1.873795509338379,0.421478271484375,0.6302818059921265
1695200961423264500,5.125264404296875,1.8730213642120361,0.42374324798583984,0.6473650932312012
1695200961433263400,5.135263427734375,1.418867826461792,0.014731407165527344,-0.10273635387420654
1695200961443262000,5.145261962890625,1.2429229021072388,-0.04706096649169922,-0.35916298627853394
1695200961453260800,5.1552607421875,1.0549547672271729,0.046405792236328125,-0.5821211934089661
1695200961463259600,5.165259765625,1.055619716644287,0.04840087890625,-0.5666002631187439
1695200961473258200,5.17525830078125,1.222996473312378,0.16019916534423828,-0.42397814989089966
1695200961483257000,5.185257080078125,1.248215913772583,0.044315338134765625,-0.20458155870437622
1695200961493256000,5.195255859375,1.3239452838897705,-0.052722930908203125,-0.23195266723632812
1695200961503254500,5.205254638671875,1.3265743255615234,-0.12389659881591797,-0.1644885540008545
1695200961513253400,5.21525341796875,1.3887107372283936,0.04868507385253906,-0.007133126258850098
1695200961523252200,5.225252197265625,1.6425278186798096,0.34311866760253906,0.2388249635696411
1695200961533250800,5.235250732421875,1.8264713287353516,0.43879222869873047,0.5400036573410034
1695200961543249700,5.245249755859375,1.8261513710021973,0.43895721435546875,0.5414561033248901
1695200961553248300,5.255248291015625,1.916891098022461,0.2813606262207031,0.904180645942688
1695200961563247000,5.2652470703125,1.8309381008148193,0.27720165252685547,0.6818132400512695
1695200961573245700,5.27524560546875,1.6735024452209473,0.2325887680053711,0.3537600040435791
1695200961583244500,5.28524462890625,1.5146286487579346,0.21488189697265625,0.1424647569656372
1695200961593243400,5.295243408203125,1.4087841510772705,0.16617298126220703,-0.04861092567443848
1695200961603242000,5.305241943359375,1.4108831882476807,0.10782051086425781,-0.19944560527801514
1695200961613240800,5.31524072265625,1.3893611431121826,0.013428688049316406,-0.27003151178359985
1695200961623239400,5.325239501953125,1.1952664852142334,-0.02847003936767578,-0.26546579599380493
1695200961633238300,5.33523828125,1.1161584854125977,-0.0011892318725585938,-0.22945547103881836
1695200961643236900,5.34523681640625,1.2473145723342896,0.042545318603515625,-0.2963864803314209
1695200961653235700,5.355235595703125,1.4525856971740723,0.2129039764404297,-0.025840044021606445
1695200961663234300,5.365234375,1.4641566276550293,0.34227561950683594,0.10324764251708984
1695200961673233200,5.375233154296875,1.5211434364318848,0.30127525329589844,0.20275211334228516
1695200961683231700,5.385231689453125,1.580188274383545,0.1573324203491211,0.31438732147216797
1695200961693230600,5.395230712890625,1.6445204019546509,0.13096046447753906,0.4496629238128662
1695200961703229400,5.4052294921875,1.6253743171691895,0.17418575286865234,0.4593949317932129
1695200961713228000,5.41522802734375,1.6280548572540283,0.17441654205322266,0.46017980575561523
1695200961723227000,5.425226806640625,1.6048725843429565,0.23936939239501953,0.21245431900024414
1695200961733225700,5.435225830078125,1.502873420715332,0.18233966827392578,0.15983366966247559
1695200961743224300,5.445224365234375,1.3031516075134277,0.09435653686523438,0.027017951011657715
1695200961753223200,5.45522314453125,1.2163171768188477,0.09981632232666016,-0.050211429595947266
1695200961763221800,5.4652216796875,1.3088297843933105,0.14591407775878906,-0.017696022987365723
1695200961773220600,5.475220703125,1.4898537397384644,0.2039041519165039,0.023725271224975586
1695200961783219500,5.485219482421875,1.535340666770935,0.15888595581054688,0.18389344215393066
1695200961793218000,5.495218017578125,1.5402216911315918,0.1593303680419922,0.185866117477417
1695200961803217000,5.505216796875,1.4661288261413574,0.14054012298583984,0.2086024284362793
1695200961813215500,5.515215576171875,1.4184379577636719,0.1742868423461914,0.09130966663360596
1695200961823214300,5.52521435546875,1.439693570137024,0.19362449645996094,0.04318547248840332
1695200961833213200,5.535213134765625,1.4627435207366943,0.16744232177734375,0.04797637462615967
1695200961843211800,5.545211669921875,1.4062533378601074,0.11733722686767578,0.02653789520263672
1695200961853210600,5.555210693359375,1.4089120626449585,0.1173696517944336,0.025781631469726562
1695200961863209200,5.565209228515625,1.279630422592163,0.13403034210205078,0.002445816993713379
1695200961873208000,5.5752080078125,1.2629730701446533,0.12900447845458984,0.016083717346191406
1695200961883207000,5.58520703125,1.2675620317459106,0.09033966064453125,0.07664775848388672
1695200961893205800,5.595205810546875,1.3582403659820557,0.12826061248779297,0.09397292137145996
1695200961903204400,5.605204345703125,1.4125380516052246,0.16856861114501953,0.1855025291442871
1695200961913203200,5.615203125,1.358343243598938,0.2064495086669922,0.22221124172210693
1695200961923202000,5.6252021484375,1.4668296575546265,0.2491922378540039,0.3193262815475464
1695200961933201200,5.635201171875,1.5540176630020142,0.22489261627197266,0.2991161346435547
1695200961943200000,5.645199951171875,1.4642845392227173,0.18141460418701172,0.26410460472106934
1695200962252523000,5.95452294921875,1.477890968322754,0.17351245880126953,0.19233214855194092
1695200962262520800,5.964520751953125,1.2486072778701782,0.12829113006591797,-0.0449671745300293
1695200962272520000,5.97452001953125,1.2202541828155518,0.15968799591064453,-0.009364008903503418
1695200962282518300,5.984518310546875,1.3299407958984375,0.17667293548583984,0.016498446464538574
1695200962292516900,5.994516845703125,1.4397714138031006,0.16965866088867188,0.1042623519897461
1695200962302515500,6.004515380859375,1.46565580368042,0.1985492706298828,0.25175464153289795
1695200962312514300,6.014514404296875,1.4907655715942383,0.2154541015625,0.32278943061828613
1695200962322513200,6.02451318359375,1.508858561515808,0.1844921112060547,0.29821670055389404
1695200962332512000,6.034511962890625,1.5082013607025146,0.18477630615234375,0.3008044958114624
1695200962342510800,6.0445107421875,1.4762845039367676,0.1755828857421875,0.2875254154205322
1695200962352509700,6.054509765625,1.3581290245056152,0.21675491333007812,0.2318274974822998
1695200962362508500,6.064508544921875,1.3430252075195312,0.20054149627685547,0.20071804523468018
1695200962372507100,6.074507080078125,1.3254066705703735,0.13649940490722656,0.1606076955795288
1695200962382506000,6.084506103515625,1.2815810441970825,0.10130023956298828,0.10948789119720459
1695200962392504800,6.0945048828125,1.3427531719207764,0.09246444702148438,0.032410383224487305
1695200962402503400,6.10450341796875,1.351048469543457,0.1458454132080078,0.010231852531433105
1695200962412502300,6.114502197265625,1.3760539293289185,0.15366363525390625,0.02580440044403076
1695200962422501000,6.124501220703125,1.3343524932861328,0.1757831573486328,-0.012065410614013672
1695200962432499700,6.134499755859375,1.3455368280410767,0.15468120574951172,-0.04137885570526123
1695200962442498600,6.14449853515625,1.3420506715774536,0.09521007537841797,-0.018467187881469727
1695200962452497400,6.154497314453125,1.3409719467163086,0.10032939910888672,0.035141825675964355
1695200962462496000,6.16449609375,1.339902400970459,0.10059070587158203,0.095328688621521
1695200962472494800,6.174494873046875,1.3387742042541504,0.10080337524414062,0.09754741191864014
1695200962482493700,6.18449365234375,1.299667477607727,0.0722494125366211,0.12818098068237305
1695200962492492500,6.194492431640625,1.3560452461242676,0.18493080139160156,0.09166491031646729
1695200962502491100,6.2044912109375,1.3499469757080078,0.247344970703125,0.05760610103607178
1695200962512490000,6.214489990234375,1.2883824110031128,0.18764209747314453,0.030829787254333496
1695200962522488600,6.224488525390625,1.282024621963501,0.08714771270751953,0.00346529483795166
1695200962532487400,6.2344873046875,1.3015766143798828,0.04163837432861328,0.023087739944458008
1695200962542486000,6.244486083984375,1.2805416584014893,0.04871082305908203,0.09240472316741943
1695200962552484900,6.25448486328125,1.341375470161438,0.07736778259277344,0.1424623727798462
1695200962562483700,6.264483642578125,1.4431676864624023,0.16821670532226562,0.1753387451171875
1695200962572482300,6.274482421875,1.4827415943145752,0.2398996353149414,0.2606579065322876
1695200962582481200,6.284481201171875,1.4672484397888184,0.28530216217041016,0.2651407718658447
1695200962592480000,6.29447998046875,1.4279499053955078,0.2565288543701172,0.15976381301879883
1695200962602478600,6.304478515625,1.340588092803955,0.18945884704589844,0.09777045249938965
1695200962612477400,6.3144775390625,1.2793376445770264,0.11287784576416016,0.10572457313537598
1695200962622476000,6.32447607421875,1.2777949571609497,0.11291313171386719,0.10670912265777588
1695200962632475000,6.334474853515625,1.1963685750961304,0.06853675842285156,0.13634085655212402
1695200962642473500,6.344473388671875,1.13134765625,0.11925220489501953,0.22745263576507568
1695200962652472300,6.354472412109375,1.0325660705566406,0.1597909927368164,0.23432087898254395
1695200962662471000,6.364470947265625,0.9701706171035767,0.1114187240600586,0.18351030349731445
1695200962672469800,6.3744697265625,0.8062989115715027,0.12052345275878906,0.07407557964324951
1695200962682468400,6.38446826171875,0.6011906862258911,0.0725240707397461,-0.033583641052246094
1695200962692467200,6.39446728515625,0.643499493598938,0.06550312042236328,-0.09856665134429932
1695200962702465800,6.4044658203125,0.6738424301147461,0.051308631896972656,-0.03416788578033447
1695200962712464600,6.414464599609375,0.6951266527175903,0.05878257751464844,0.05231595039367676
1695200962722463500,6.42446337890625,0.7739822864532471,0.09265327453613281,0.14154624938964844
1695200962732462000,6.434462158203125,0.8143396377563477,0.12889862060546875,0.13269174098968506
1695200962742461000,6.4444609375,0.7663846015930176,0.08374309539794922,0.1044231653213501
1695200962752459800,6.454459716796875,0.7664933204650879,0.08409595489501953,0.10731065273284912
1695200962762458400,6.464458251953125,0.6445637941360474,0.008275032043457031,0.03048717975616455
1695200962772457200,6.474457275390625,0.4776458740234375,-0.03304100036621094,-0.10155594348907471
1695200962782455800,6.484455810546875,0.47173261642456055,0.05108070373535156,-0.034567952156066895
1695200962792454700,6.49445458984375,0.4506382942199707,0.12636089324951172,0.1008826494216919
1695200962802453500,6.50445361328125,0.5886396169662476,0.17249679565429688,0.17162704467773438
1695200962812452000,6.5144521484375,0.5896905660629272,0.1731557846069336,0.17588257789611816
1695200962822451000,6.524450927734375,0.5858262777328491,0.18577098846435547,0.17791485786437988
1695200962832449500,6.534449462890625,0.46459662914276123,-0.029097557067871094,0.00973057746887207
1695200962842448400,6.544448486328125,0.3531559705734253,-0.09073448181152344,-0.12752819061279297
1695200962852447200,6.554447265625,0.3185744285583496,-0.035053253173828125,-0.13820958137512207
1695200962862445800,6.56444580078125,0.3247215747833252,0.030141830444335938,-0.17816954851150513
1695200962872444700,6.574444580078125,0.43655312061309814,0.052298545837402344,-0.12224709987640381
1695200962882443500,6.584443603515625,0.4383593797683716,0.052924156188964844,-0.11889207363128662
1695200962892442400,6.5944423828125,0.6123470067977905,0.11095905303955078,0.07811951637268066
1695200962902441000,6.60444091796875,0.6043132543563843,0.09234237670898438,0.13847601413726807
1695200962912439800,6.614439697265625,0.5245682001113892,0.05935382843017578,0.1387007236480713
1695200962922438400,6.6244384765625,0.5287445783615112,0.07427597045898438,0.1079031229019165
1695200962932437200,6.634437255859375,0.5596936941146851,0.08690834045410156,0.08961951732635498
1695200962942436000,6.64443603515625,0.521330714225769,0.07568740844726562,0.08390581607818604
1695200962952435000,6.65443505859375,0.4402111768722534,0.062172889709472656,0.021220922470092773
1695200962962433800,6.664433837890625,0.4454597234725952,0.04863262176513672,-0.04192495346069336
1695200962972433000,6.674432861328125,0.43873000144958496,0.023090362548828125,-0.05251753330230713
1695200962982431700,6.684431640625,0.43923497200012207,0.016730308532714844,-0.036594510078430176
1695200962992430800,6.694430908203125,0.5135329961776733,0.055764198303222656,-0.049802184104919434
1695200963002429700,6.7044296875,0.5015401840209961,0.1665353775024414,-0.06364476680755615
1695200963012428800,6.7144287109375,0.3944448232650757,0.2536907196044922,-0.10124659538269043
1695200963022428000,6.724427978515625,0.3965623378753662,0.25414371490478516,-0.09982907772064209
1695200963032427000,6.734427001953125,0.34058070182800293,0.01740741729736328,-0.06536555290222168
1695200963042426000,6.744426025390625,0.28272879123687744,-0.08375263214111328,-0.01985764503479004
1695200963052425200,6.75442529296875,0.2833930253982544,-0.004788398742675781,-0.013626933097839355
1695200963062424300,6.76442431640625,0.2665470838546753,0.14638137817382812,0.02772355079650879
1695200963072423200,6.774423095703125,0.23849523067474365,0.14217281341552734,0.027376532554626465
1695200963082422300,6.78442236328125,0.21757686138153076,0.09019756317138672,0.09732639789581299
1695200963092421400,6.79442138671875,0.17371201515197754,-0.09081745147705078,0.12002646923065186
1695200963102420500,6.80442041015625,0.07217240333557129,-0.19220447540283203,0.07763731479644775
1695200963112419600,6.814419677734375,0.08672332763671875,-0.12067317962646484,0.07593929767608643
1695200963122418700,6.824418701171875,0.18276488780975342,-0.000873565673828125,0.11987435817718506
1695200963132417800,6.834417724609375,0.26714015007019043,0.11652660369873047,0.16833984851837158
1695200963142417000,6.8444169921875,0.25419938564300537,0.11382389068603516,0.162872314453125
1695200963152416000,6.854416015625,0.23682689666748047,-0.0067901611328125,0.21774089336395264
1695200963162415000,6.8644150390625,0.11181807518005371,-0.09166240692138672,0.010224580764770508
1695200963172414200,6.874414306640625,-0.0036592483520507812,-0.04185295104980469,-0.22161877155303955
1695200963182413000,6.8844130859375,-0.015773892402648926,0.05148887634277344,-0.3222920298576355
1695200963192412200,6.894412109375,-0.01651144027709961,0.06494712829589844,-0.2828361988067627
1695200963202411300,6.904411376953125,0.01567697525024414,0.00008869171142578125,-0.20385205745697021
1695200963212410400,6.914410400390625,0.08981168270111084,-0.07169818878173828,-0.1531451940536499
1695200963222409500,6.924409423828125,0.039052724838256836,-0.105377197265625,-0.07952690124511719
1695200963232408600,6.93440869140625,-0.018538832664489746,-0.10080337524414062,-0.07406985759735107
1695200963242407700,6.94440771484375,0.055945515632629395,0.013915061950683594,-0.011694669723510742
1695200963252406800,6.95440673828125,0.05588579177856445,0.013654708862304688,-0.013750910758972168
1695200963262405600,6.964405517578125,0.2210167646408081,0.2409210205078125,0.2480933666229248
1695200963272404500,6.974404541015625,0.18443989753723145,0.037148475646972656,0.3425825834274292
1695200963282403300,6.9844033203125,0.20972979068756104,-0.15947914123535156,0.27695155143737793
1695200963292402200,6.994402099609375,0.20909500122070312,-0.1596384048461914,0.2765458822250366
1695200963302401000,7.004401123046875,0.0935506820678711,0.012690544128417969,0.1188352108001709
1695200963312400000,7.01439990234375,0.1288764476776123,0.10611343383789062,0.03626549243927002
1695200963322398500,7.0243984375,0.14053666591644287,0.051245689392089844,0.007312774658203125
1695200963332397300,7.034397216796875,0.15480351448059082,-0.044213294982910156,0.01730024814605713
1695200963342396000,7.04439599609375,0.11649560928344727,-0.04145622253417969,-0.04900705814361572
1695200963352394800,7.054394775390625,0.013622760772705078,-0.00039386749267578125,-0.09386897087097168
1695200963362393300,7.064393310546875,-0.005437016487121582,-0.033606529235839844,-0.17748361825942993
1695200963372392200,7.07439208984375,-0.0005322694778442383,-0.07640266418457031,-0.18707937002182007
1695200963382391000,7.08439111328125,0.04074299335479736,-0.06888008117675781,-0.15138792991638184
1695200963392390000,7.094389892578125,0.07743251323699951,0.020094871520996094,-0.03429615497589111
1695200963402388500,7.104388427734375,0.16697478294372559,0.07320022583007812,0.02796614170074463
1695200963412387300,7.11438720703125,0.1990499496459961,0.05695152282714844,0.09093081951141357
1695200963422386000,7.124385986328125,0.20028328895568848,0.05753040313720703,0.09424948692321777
1695200963432384800,7.134384765625,0.1081463098526001,-0.044872283935546875,0.08763933181762695
1695200963442383600,7.144383544921875,0.05417275428771973,-0.04677295684814453,0.042464613914489746
1695200963452382200,7.15438232421875,0.00990593433380127,-0.0031490325927734375,-0.004980206489562988
1695200963462381000,7.164381103515625,0.04456758499145508,0.02612781524658203,-0.03294658660888672
1695200963472380000,7.1743798828125,0.07860660552978516,0.0074100494384765625,-0.04184401035308838
1695200963482378500,7.18437841796875,0.07864046096801758,0.007710456848144531,-0.039139628410339355
1695200963492377300,7.19437744140625,0.023317933082580566,-0.006478309631347656,-0.046732425689697266
1695200963502376200,7.204376220703125,0.03963196277618408,-0.008749961853027344,-0.054552316665649414
1695200963512374800,7.214374755859375,0.012529611587524414,-0.006285667419433594,-0.03120124340057373
1695200963522373600,7.22437353515625,0.021122217178344727,-0.054129600524902344,0.01614856719970703
1695200963532372200,7.234372314453125,0.03212571144104004,-0.05648040771484375,0.08737325668334961
1695200963542371000,7.24437109375,0.031151652336120605,-0.05642414093017578,0.08943617343902588
1695200963552369700,7.25436962890625,0.23385560512542725,0.025155067443847656,0.17366671562194824
1695200963562368500,7.264368408203125,0.1750469207763672,0.04021263122558594,0.19267702102661133
1695200963572367400,7.274367431640625,0.13006329536437988,-0.009677886962890625,0.10477197170257568
1695200963582366000,7.284365966796875,0.05641376972198486,-0.07394123077392578,-0.08154553174972534
1695200963592364800,7.29436474609375,-0.025624990463256836,-0.09757137298583984,-0.12566536664962769
1695200963602363600,7.30436376953125,-0.07667982578277588,-0.07337284088134766,-0.16997027397155762
1695200963612362200,7.3143623046875,0.004137158393859863,-0.027593612670898438,-0.14734184741973877
1695200963622361000,7.324361083984375,0.000956416130065918,-0.02750873565673828,-0.1416720151901245
1695200963632360000,7.33435986328125,0.07170367240905762,-0.005898475646972656,0.0057059526443481445
1695200963642358500,7.344358642578125,0.04873239994049072,0.0011091232299804688,0.017408013343811035
1695200963652357400,7.354357421875,0.008693575859069824,-0.023224830627441406,-0.02993619441986084
1695200963662356000,7.36435595703125,0.007557511329650879,-0.05706787109375,-0.020096898078918457
1695200963672354800,7.374354736328125,0.0621718168258667,-0.07880496978759766,-0.014838814735412598
1695200963682353400,7.384353515625,0.09769237041473389,-0.014361381530761719,0.028413772583007812
1695200963692352300,7.394352294921875,0.13716042041778564,0.07616806030273438,0.0659717321395874
1695200963702350800,7.404350830078125,0.12248063087463379,0.05619049072265625,0.08093678951263428
1695200963712349700,7.414349609375,0.11887216567993164,-0.004731178283691406,0.06400656700134277
1695200963722348300,7.424348388671875,0.08879411220550537,-0.05132770538330078,0.030367374420166016
1695200963732347100,7.43434716796875,-0.017445683479309082,-0.0546875,0.0019391775131225586
1695200963742345700,7.444345703125,-0.04301261901855469,-0.024175643920898438,-0.061919987201690674
1695200963752344600,7.454344482421875,-0.018854618072509766,0.006801605224609375,-0.06208765506744385
1695200963762343200,7.46434326171875,0.08516538143157959,-0.03375816345214844,-0.04888123273849487
1695200963772342000,7.474342041015625,0.15483248233795166,-0.05041980743408203,-0.05876493453979492
1695200963782340900,7.4843408203125,0.050211429595947266,-0.03637218475341797,-0.05017244815826416
1695200963792339500,7.49433935546875,-0.003776073455810547,-0.05110359191894531,-0.11920690536499023
1695200963802338300,7.50433837890625,-0.04237091541290283,-0.1014556884765625,-0.16793572902679443
1695200963812337000,7.5143369140625,-0.002270221710205078,-0.04107666015625,-0.1068984866142273
1695200963822335700,7.524335693359375,0.02635025978088379,-0.004481315612792969,-0.011647045612335205
1695200963832334300,7.534334228515625,0.014118790626525879,0.008022308349609375,0.010829925537109375
1695200963842333200,7.544333251953125,0.057117581367492676,-0.034615516662597656,0.03695172071456909
1695200963852332000,7.55433203125,0.10219955444335938,-0.06065559387207031,0.004584133625030518
1695200963862330600,7.56433056640625,-0.028737902641296387,-0.03194999694824219,0.033603549003601074
1695200963872329500,7.57432958984375,-0.017275333404541016,-0.029558181762695312,0.0009961128234863281
1695200963882328300,7.584328369140625,-0.019462227821350098,0.008874893188476562,0.016168534755706787
1695200963892327000,7.594326904296875,0.023859381675720215,-0.005394935607910156,0.0024382472038269043
1695200963902325800,7.60432568359375,0.02368903160095215,-0.00534820556640625,0.0031755566596984863
1695200963912324400,7.614324462890625,0.04728901386260986,-0.055687904357910156,0.019950032234191895
1695200963922323200,7.6243232421875,-0.03551149368286133,-0.09139442443847656,-0.03478723764419556
1695200963932322000,7.634322021484375,0.013356924057006836,0.0047092437744140625,-0.08837181329727173
1695200963942320600,7.644320556640625,0.023985624313354492,0.04105854034423828,-0.03330343961715698
1695200963952319500,7.654319580078125,-0.0014948844909667969,0.0030841827392578125,-0.06741952896118164
1695200963962318300,7.664318359375,-0.04872703552246094,-0.051688194274902344,-0.11833679676055908
1695200963972317000,7.67431689453125,-0.059397101402282715,-0.10150337219238281,-0.1495698094367981
1695200963982315800,7.684315673828125,-0.05807209014892578,-0.10097885131835938,-0.1467498540878296
1695200963992314600,7.694314697265625,-0.11967599391937256,-0.10736274719238281,-0.18475079536437988
1695200964002313200,7.704313232421875,-0.10118377208709717,-0.05360221862792969,-0.1740434765815735
1695200964012312000,7.71431201171875,-0.07715082168579102,-0.011646270751953125,-0.09830915927886963
1695200964022310700,7.724310546875,-0.041358113288879395,-0.017751693725585938,-0.08373409509658813
1695200964032309500,7.7343095703125,-0.051564812660217285,-0.0283050537109375,-0.07572370767593384
1695200964042308400,7.744308349609375,-0.14781081676483154,-0.06528568267822266,-0.0734792947769165
1695200964052307200,7.75430712890625,-0.17721891403198242,-0.056853294372558594,0.05763298273086548
1695200964062306300,7.764306396484375,-0.11608994007110596,0.06640911102294922,0.294063925743103
1695200964072305200,7.77430517578125,0.08368003368377686,0.23997020721435547,0.6125643849372864
1695200964082304000,7.784303955078125,0.31955671310424805,0.2583808898925781,0.8611645698547363
1695200964092303000,7.79430322265625,0.3187967538833618,0.25805187225341797,0.8593257665634155
1695200964102302000,7.804302001953125,0.4449986219406128,0.08799362182617188,0.7378472089767456
1695200964112301000,7.814301025390625,0.20199847221374512,0.06405258178710938,0.375807523727417
1695200964122300200,7.824300048828125,0.047515153884887695,0.06171703338623047,-0.011624515056610107
1695200964132299300,7.83429931640625,-0.039678096771240234,-0.00024127960205078125,-0.1484384536743164
1695200964142298400,7.84429833984375,-0.10215258598327637,-0.16241168975830078,-0.10354745388031006
1695200964152297500,7.85429736328125,-0.12809741497039795,-0.2692985534667969,-0.10784202814102173
1695200964162296300,7.86429638671875,-0.1273568868637085,-0.2684354782104492,-0.10074889659881592
1695200964172295400,7.87429541015625,-0.06883645057678223,-0.11919403076171875,-0.22397905588150024
1695200964182294500,7.88429443359375,-0.07282567024230957,-0.06110668182373047,-0.2599145174026489
1695200964192293600,7.894293701171875,-0.1247791051864624,-0.03909111022949219,-0.3235107660293579
1695200964202292700,7.904292724609375,-0.20090210437774658,-0.07243156433105469,-0.413469135761261
1695200964212291600,7.91429150390625,-0.24129533767700195,-0.05572795867919922,-0.2829992175102234
1695200964222290700,7.924290771484375,-0.1810302734375,-0.04154491424560547,-0.0940173864364624
1695200964232289800,7.934289794921875,0.001703500747680664,0.04689979553222656,0.17382627725601196
1695200964242289000,7.944288818359375,0.19369816780090332,0.12339973449707031,0.4471108317375183
1695200964252288000,7.9542880859375,0.2148381471633911,0.10877799987792969,0.5578725934028625
1695200964262287000,7.964287109375,0.1343696117401123,0.07236862182617188,0.43102478981018066
1695200964272286000,7.974285888671875,0.08695363998413086,0.028638839721679688,0.16240781545639038
1695200964282285000,7.98428515625,0.026876211166381836,-0.012746810913085938,-0.03614002466201782
1695200964292284200,7.9942841796875,-0.0859367847442627,-0.027769088745117188,-0.07861268520355225
1695200964302283300,8.004283203125,-0.0786515474319458,-0.04273700714111328,-0.07324135303497314
1695200964312282400,8.014282470703124,0.06316220760345459,-0.06715774536132812,0.035367488861083984
1695200964322281200,8.02428125,0.0831906795501709,-0.04358100891113281,0.17810124158859253
1695200964332280300,8.0342802734375,0.053134918212890625,-0.017589569091796875,0.2153993844985962
1695200964342279200,8.044279052734375,-0.025339365005493164,-0.025275230407714844,0.08206182718276978
1695200964352278300,8.0542783203125,-0.0032062530517578125,-0.05692863464355469,-0.03492969274520874
1695200964362277000,8.064277099609376,-0.02673804759979248,-0.08382987976074219,-0.04170346260070801
1695200964372276000,8.07427587890625,-0.01711559295654297,-0.04609489440917969,0.023800134658813477
1695200964382274800,8.08427490234375,0.004740476608276367,0.02994060516357422,0.038571715354919434
1695200964392273700,8.094273681640624,0.0034410953521728516,0.04623699188232422,0.043606698513031006
1695200964402272300,8.104272216796875,0.004421830177307129,0.03864574432373047,0.1330786943435669
1695200964412271000,8.11427099609375,-0.0014678239822387695,0.009646415710449219,0.21368873119354248
1695200964422269700,8.124269775390625,-0.023644685745239258,0.02624225616455078,0.23969757556915283
1695200964432268500,8.1342685546875,0.027731895446777344,0.021254539489746094,0.18963384628295898
1695200964442267100,8.14426708984375,0.0259629487991333,0.02101612091064453,0.1904226541519165
1695200964452266000,8.154265869140625,0.018947720527648926,0.003987312316894531,0.13675493001937866
1695200964462264600,8.1642646484375,-0.08180081844329834,-0.017868995666503906,-0.06771457195281982
1695200964472263400,8.174263427734376,-0.007739663124084473,-0.032563209533691406,-0.10238587856292725
1695200964482262300,8.18426220703125,0.09987914562225342,-0.020905494689941406,-0.038680434226989746
1695200964492260900,8.1942607421875,0.15054082870483398,-0.056998252868652344,0.0828467607498169
1695200964502259700,8.204259765625,0.07784152030944824,-0.029249191284179688,0.11505770683288574
1695200964512258300,8.21425830078125,-0.05258524417877197,-0.008954048156738281,0.01107114553451538
1695200964522257200,8.224257080078125,-0.04716634750366211,-0.021750450134277344,-0.046535491943359375
1695200964532256000,8.234256103515625,-0.0481724739074707,-0.022211074829101562,-0.049063920974731445
1695200964542254600,8.244254638671874,-0.10288894176483154,-0.055809974670410156,0.004592418670654297
1695200964552253400,8.25425341796875,-0.05093348026275635,-0.04126548767089844,-0.0038355588912963867
1695200964562252000,8.264251953125,0.02273714542388916,-0.04101848602294922,0.04080915451049805
1695200964572251000,8.2742509765625,0.021251797676086426,-0.009850502014160156,0.04684650897979736
1695200964582249700,8.284249755859374,0.15079855918884277,-0.00038623809814453125,0.07645642757415771
1695200964592248300,8.294248291015625,0.12034022808074951,-0.015049934387207031,0.11011612415313721
1695200964602247200,8.3042470703125,0.054672837257385254,-0.0008840560913085938,0.062077999114990234
1695200964612246000,8.31424609375,0.041854143142700195,-0.027411460876464844,-0.024490654468536377
1695200964622244600,8.32424462890625,0.0096588134765625,-0.018082618713378906,0.018224477767944336
1695200964632243500,8.334243408203125,-0.00825488567352295,-0.02069568634033203,0.05412030220031738
1695200964642242300,8.3442421875,-0.009277582168579102,-0.020865440368652344,0.05417072772979736
1695200964652241000,8.354240966796874,0.04706370830535889,-0.0019083023071289062,0.09737324714660645
1695200964662239700,8.36423974609375,0.012893199920654297,0.013787269592285156,0.09244430065155029
1695200964672238300,8.37423828125,0.007563233375549316,0.0007238388061523438,0.046669840812683105
1695200964682237200,8.3842373046875,0.021889805793762207,-0.01933002471923828,0.032846927642822266
1695200964692236000,8.394236083984374,-0.0116119384765625,-0.0416717529296875,0.008102774620056152
1695200964702234600,8.404234619140626,-0.03243446350097656,-0.042214393615722656,-0.039671242237091064
1695200964712233500,8.4142333984375,-0.033127546310424805,-0.04240703582763672,-0.040254294872283936
1695200964722232000,8.424232177734375,0.0022220611572265625,-0.013607978820800781,-0.02910006046295166
1695200964732231000,8.43423095703125,0.035077452659606934,-0.02306079864501953,0.021080613136291504
1695200964742229800,8.444229736328126,-0.006801605224609375,-0.05180549621582031,0.030260682106018066
1695200964752228400,8.454228271484375,-0.006747245788574219,-0.05163764953613281,0.03159379959106445
1695200964762227200,8.464227294921875,0.15354931354522705,-0.053859710693359375,0.004768490791320801
1695200964772226000,8.47422607421875,0.09625053405761719,-0.027812957763671875,0.02506077289581299
1695200964782224600,8.484224609375,0.024222254753112793,-0.03549003601074219,0.060822248458862305
1695200964792223200,8.49422314453125,0.043631553649902344,-0.059940338134765625,0.07415211200714111
1695200964802222000,8.50422216796875,0.003553032875061035,0.01372528076171875,0.038549184799194336
1695200964812220700,8.514220703125,0.006952047348022461,0.04670143127441406,0.05019962787628174
1695200964822219500,8.524219482421875,0.014897584915161133,0.007819175720214844,0.08597683906555176
1695200964832218000,8.534218017578125,0.013096451759338379,-0.028749465942382812,0.11662507057189941
1695200964842217000,8.544217041015624,-0.002965688705444336,-0.031887054443359375,0.06239521503448486
1695200964852215600,8.554215576171876,0.04129636287689209,-0.0014390945434570312,0.04391193389892578
1695200964862214400,8.56421435546875,0.04065859317779541,-0.0014715194702148438,0.044666409492492676
1695200964872213000,8.574212890625,0.04029250144958496,-0.013387680053710938,0.04825937747955322
1695200964882211800,8.5842119140625,0.01618170738220215,-0.0875406265258789,-0.01314234733581543
1695200964892210700,8.594210693359376,-0.0002676248550415039,-0.04667854309082031,-0.055274009704589844
1695200964902209300,8.604209228515625,-0.03584599494934082,-0.010544776916503906,-0.03463244438171387
1695200964912208100,8.6142080078125,-0.0786827802658081,0.004065513610839844,0.01986873149871826
1695200964922206700,8.624206787109374,-0.042413949966430664,-0.017200469970703125,0.03611350059509277
1695200964932205600,8.63420556640625,0.029709577560424805,-0.04083824157714844,0.02173793315887451
1695200964942204200,8.6442041015625,0.029778122901916504,-0.04051685333251953,0.02459883689880371
1695200964952203000,8.654203125,-0.004029512405395508,-0.018683433532714844,0.058815956115722656
1695200964962201900,8.664201904296876,-0.00695037841796875,0.010288238525390625,-0.04574763774871826
1695200964972200400,8.674200439453125,-0.006885170936584473,0.010327339172363281,-0.04543507099151611
1695200964982199300,8.68419921875,-0.018709421157836914,0.0177459716796875,-0.06269001960754395
1695200964992198100,8.6941982421875,-0.030228137969970703,0.0037965774536132812,-0.045172810554504395
1695200965002196700,8.70419677734375,0.04718482494354248,-0.024381637573242188,-0.010147690773010254
1695200965012195600,8.714195556640625,0.07346153259277344,-0.05270099639892578,0.09439301490783691
1695200965022194400,8.7241943359375,0.10091865062713623,-0.019133567810058594,0.11141669750213623
1695200965032193000,8.734193115234374,0.10323536396026611,0.03318977355957031,0.07172262668609619
1695200965042192000,8.74419189453125,0.07612073421478271,0.030178070068359375,0.05009138584136963
1695200965052190500,8.7541904296875,-0.008894562721252441,0.010315895080566406,-0.00296783447265625
1695200965062189300,8.764189208984375,0.017096519470214844,-0.057190895080566406,-0.0696224570274353
1695200965072188000,8.77418798828125,-0.03985321521759033,-0.062053680419921875,-0.07647359371185303
1695200965082186800,8.784186767578126,-0.05957365036010742,-0.004271507263183594,-0.029288530349731445
1695200965092185600,8.794185546875,0.005505561828613281,0.027413368225097656,-0.000693976879119873
1695200965102184400,8.804184326171875,0.0058830976486206055,0.027998924255371094,0.004291951656341553
1695200965112183000,8.81418310546875,0.0502467155456543,0.025788307189941406,0.15410500764846802
1695200965122182000,8.824181884765625,0.012489676475524902,0.0255584716796875,0.10032624006271362
1695200965132180700,8.8341806640625,0.03480648994445801,-0.034562110900878906,0.02888411283493042
1695200965142179600,8.8441796875,-0.01704084873199463,-0.0657949447631836,0.0426098108291626
1695200965152178400,8.854178466796874,-0.00941777229309082,-0.02657794952392578,0.01718461513519287
1695200965162177300,8.86417724609375,-0.02820432186126709,-0.04960918426513672,-0.09657973051071167
1695200965172176100,8.874176025390625,-0.045163750648498535,-0.05842399597167969,-0.18910664319992065
1695200965182175000,8.884175048828125,-0.05492281913757324,-0.05528831481933594,-0.20540863275527954
1695200965192173800,8.894173828125,-0.048261284828186035,-0.03311634063720703,-0.17409193515777588
1695200965202172700,8.904172607421875,-0.013059735298156738,-0.01578998565673828,-0.10471028089523315
1695200965212171500,8.914171630859375,-0.014148235321044922,-0.015368461608886719,-0.09820210933685303
1695200965222170400,8.92417041015625,-0.03188121318817139,-0.03411674499511719,-0.07525694370269775
1695200965232169200,8.934169189453126,-0.05421125888824463,-0.05438709259033203,-0.11073023080825806
1695200965242168000,8.94416796875,-0.09281384944915771,-0.048244476318359375,-0.10531395673751831
1695200965252167000,8.9541669921875,-0.09001123905181885,-0.04675865173339844,-0.09501004219055176
1695200965551997000,9.253996826171875,0.11478984355926514,0.03671836853027344,0.10081225633621216
1695200965561995000,9.2639951171875,0.38597869873046875,0.041027069091796875,0.26179182529449463
1695200965571992800,9.273992919921875,0.34105396270751953,0.023682594299316406,0.13651394844055176
1695200965581991700,9.28399169921875,0.07245278358459473,-0.04670906066894531,-0.15385061502456665
1695200965591990000,9.293989990234374,-0.18953633308410645,-0.16767501831054688,-0.47298508882522583
1695200965601988900,9.30398876953125,-0.3727458715438843,-0.22896385192871094,-0.726671576499939
1695200965611987500,9.313987548828125,-0.14986884593963623,-0.18225574493408203,-0.6835594177246094
1695200965621986000,9.323986083984375,0.024618983268737793,-0.039275169372558594,-0.34643083810806274
1695200965631985000,9.33398486328125,0.12378835678100586,0.025109291076660156,-0.03361630439758301
1695200965641983500,9.3439833984375,0.12527859210968018,0.02502155303955078,-0.03815823793411255
1695200965651982000,9.353982177734375,0.06624138355255127,-0.07106590270996094,0.04009377956390381
1695200965661981000,9.36398095703125,0.06611084938049316,-0.07176017761230469,0.03201359510421753
1695200965671979500,9.3739794921875,0.2925068140029907,-0.04123497009277344,-0.2942039966583252
1695200965681978000,9.38397802734375,-0.04087650775909424,-0.056087493896484375,-0.35887423157691956
1695200965691977000,9.39397705078125,-0.3328951597213745,-0.14262676239013672,-0.3420071303844452
1695200965701975600,9.4039755859375,-0.30514752864837646,-0.1691293716430664,-0.32346099615097046
1695200965711974400,9.413974365234376,0.1432265043258667,0.005700111389160156,-0.08541536331176758
1695200965721973000,9.423972900390625,0.5190165042877197,0.1427011489868164,0.39161044359207153
1695200965731971600,9.4339716796875,0.5108040571212769,0.19406700134277344,0.9941928386688232
1695200965741970400,9.443970458984374,0.48088908195495605,0.13776397705078125,0.8653979301452637
1695200965751969000,9.453968994140626,0.21160030364990234,0.05455970764160156,0.4670167565345764
1695200965761967900,9.4639677734375,-0.13269197940826416,-0.04092979431152344,0.02369791269302368
1695200965771966500,9.473966552734375,-0.29948604106903076,-0.10568904876708984,-0.2663309574127197
1695200965781965300,9.48396533203125,-0.23511815071105957,-0.08388614654541016,-0.36835283041000366
1695200965791964000,9.4939638671875,-0.22746336460113525,-0.1263875961303711,-0.14475733041763306
1695200965801962500,9.50396240234375,-0.0031870603561401367,-0.04643726348876953,0.06345242261886597
1695200965811961300,9.51396142578125,0.202581524848938,0.01933002471923828,0.246221125125885
1695200965821960000,9.5239599609375,0.11905360221862793,0.03737163543701172,0.3292950391769409
1695200971096647200,14.798647216796875,-0.14506399631500244,-0.1086282730102539,-0.2055700719356537
1695200971106647000,14.80864697265625,-0.1461954116821289,-0.10875606536865234,-0.2040441334247589
1695200971116646100,14.818646240234376,-0.11837911605834961,-0.14472675323486328,-0.2571844160556793
1695200971126644700,14.828644775390625,-0.03716588020324707,-0.0009412765502929688,-0.07510244846343994
1695200971136643300,14.838643310546875,0.09663510322570801,0.10697555541992188,0.105491042137146
1695200971146642200,14.84864208984375,0.19693636894226074,0.0712289810180664,0.18065428733825684
1695200971156640800,14.858640869140626,0.19876980781555176,0.030594825744628906,0.26481443643569946
1695200971166639600,14.8686396484375,0.10350966453552246,0.008776664733886719,0.2137686014175415
1695200971176638500,14.878638427734375,-1.2462420463562012,-0.21897220611572266,-0.12025469541549683
1695200971186637300,14.88863720703125,1.5102391242980957,0.39369678497314453,1.0183093547821045
1695200971196636200,14.89863623046875,-0.12447476387023926,-0.11892986297607422,-0.19865965843200684
1695200971206634800,14.908634765625,-2.917725086212158,-1.4407634735107422,4.034010887145996
1695200971216633600,14.918633544921875,-1.5971601009368896,-0.7417240142822266,-0.34075090289115906
1695200971226632400,14.928632568359374,0.06614422798156738,-0.025816917419433594,-0.06519019603729248
1695200971236631000,14.938631103515625,0.16154372692108154,-0.02565479278564453,0.19937533140182495
1695200971246630000,14.9486298828125,0.07967650890350342,-0.008744239807128906,0.3060683012008667
1695200971256628700,14.958628662109374,-1.5903209447860718,-3.442190170288086,-10.673369407653809
1695200971266627300,14.96862744140625,-0.030950546264648438,0.0053119659423828125,-0.019760966300964355
1695200971276626200,14.978626220703125,-0.17927885055541992,-0.03578662872314453,-0.12646499276161194
1695200971286625000,14.988625,-0.21754372119903564,-0.040985107421875,-0.23067057132720947
1695200971296623600,14.99862353515625,-0.0903937816619873,-0.01977825164794922,-0.3056130111217499
1695200971306622500,15.00862255859375,-0.04993462562561035,0.0133209228515625,-0.22459441423416138
1695200971316621000,15.01862109375,-0.07905280590057373,-0.032639503479003906,-0.13208141922950745
1695200971326620000,15.028619873046875,0.1594710350036621,-0.004557609558105469,0.20371007919311523
1695200971336618500,15.038618408203124,0.26643800735473633,0.04746246337890625,0.3234422206878662
1695200971346617300,15.048617431640626,0.021570205688476562,0.013332366943359375,0.15620362758636475
1695200971356616200,15.0586162109375,0.08004391193389893,-0.04007148742675781,0.18580615520477295
1695200971366614800,15.06861474609375,0.30682313442230225,0.06707096099853516,-0.110483318567276
1695200971376613600,15.078613525390624,0.042517900466918945,0.1070394515991211,0.07090610265731812
1695200971386612200,15.0886123046875,0.0717017650604248,-0.04960155487060547,-0.7520568370819092
1695200971396611000,15.098611083984375,-0.10775220394134521,0.023568153381347656,-0.1330084502696991
1695200971406609700,15.108609619140625,-0.17452681064605713,-0.07077598571777344,-0.13332554697990417
1695200971416608500,15.1186083984375,-0.1984424591064453,-0.08376312255859375,-0.08301979303359985
1695200971426607400,15.128607421875,-0.08107566833496094,-0.010508537292480469,-0.08511972427368164
1695200971436606200,15.138606201171875,-3.6291394233703613,2.7851271629333496,-6.038239479064941
1695200971446604800,15.148604736328124,0.17743849754333496,0.04272937774658203,0.24405115842819214
1695200971456603600,15.158603759765626,0.06563067436218262,-0.011186599731445312,0.22450226545333862
1695200971466602500,15.1686025390625,0.029814720153808594,-0.029470443725585938,0.0017009377479553223
1695200971476601000,15.17860107421875,-0.0470578670501709,-0.13167095184326172,0.06802105903625488
1695200971486600000,15.188599853515624,-0.17452943325042725,-0.049574851989746094,-0.17674559354782104
1695200971496598500,15.1985986328125,-0.17262482643127441,-0.032057762145996094,-0.2004317343235016
1695200971506597400,15.208597412109375,0.0018911361694335938,-0.019245147705078125,-0.20886054635047913
1695200971516596000,15.218595947265625,0.09495854377746582,0.0032100677490234375,-0.08464705944061279
1695200971526594800,15.2285947265625,0.04130840301513672,0.008709907531738281,0.099098801612854
1695200971536593700,15.23859375,0.030757427215576172,-0.02413654327392578,0.15524941682815552
1695200971546592300,15.24859228515625,0.022543907165527344,-0.02586841583251953,0.15660959482192993
1695200971556591000,15.258591064453125,0.007375240325927734,-0.044269561767578125,0.14417845010757446
1695200971566590000,15.26858984375,-0.03447890281677246,0.0043087005615234375,0.07242578268051147
1695200971576588500,15.278588623046875,-0.026234149932861328,0.09836101531982422,0.05123031139373779
1695200971586587400,15.28858740234375,-0.051909685134887695,0.13965606689453125,0.011417806148529053
1695200971596586200,15.298586181640625,-0.13027215003967285,0.08043861389160156,0.027669310569763184
1695200971606584800,15.308584716796876,-0.16394281387329102,-0.04836559295654297,-0.010581374168395996
1695200971616583700,15.318583740234375,-0.09298086166381836,-0.10071849822998047,-0.09657987952232361
1695200971626582300,15.328582275390625,-0.03215765953063965,-0.045462608337402344,-0.04836457967758179
1695200971636581000,15.3385810546875,0.009259939193725586,0.009757041931152344,0.04841190576553345
1695200971646580000,15.348580078125,0.01970815658569336,0.07700061798095703,0.04765385389328003
1695200971656578600,15.35857861328125,-0.14655518531799316,0.055739402770996094,-0.0274658203125
1695200971666577400,15.368577392578125,-0.13621139526367188,-0.09258365631103516,-0.08153477311134338
1695200971676576300,15.378576171875,-0.021445035934448242,-0.16211605072021484,-0.17828473448753357
1695200971686575400,15.388575439453126,0.0022842884063720703,-0.1330862045288086,-0.2629014253616333
1695200971696574200,15.39857421875,0.028616666793823242,-0.10439205169677734,-0.3203303813934326
1695200971706573300,15.4085732421875,-0.020907878875732422,0.012632369995117188,-0.3200291693210602
1695200971716572200,15.418572265625,-0.02478766441345215,0.012448310852050781,-0.30600473284721375
1695200971726571300,15.4285712890625,0.04296445846557617,0.05547523498535156,-0.19651004672050476
1695200971736570000,15.438570068359375,0.2942495346069336,0.022342681884765625,0.271462619304657
1695200971746569200,15.4485693359375,0.2009294033050537,0.04912853240966797,0.40723907947540283
1695200971756568300,15.458568359375,-0.005175113677978516,0.020753860473632812,0.3272641599178314
1695200971766567400,15.4685673828125,-0.09254145622253418,-0.02468109130859375,0.19851648807525635
1695200971776566300,15.478566162109376,0.03727078437805176,-0.034366607666015625,0.12029790878295898
1695200971786565400,15.4885654296875,0.26801538467407227,-0.024773597717285156,0.10081323981285095
1695200971796564500,15.498564453125,0.4724161624908447,-0.027078628540039062,0.15485045313835144
1695200971806563600,15.5085634765625,0.5089991092681885,-0.03423500061035156,0.17827093601226807
1695200971816562700,15.518562744140626,0.43605875968933105,-0.04372406005859375,-0.020046085119247437
1695200971826561500,15.5285615234375,0.31181764602661133,-0.06732463836669922,-0.2798508107662201
1695200971836560600,15.538560546875,0.22788286209106445,-0.07129669189453125,-0.3007091283798218
1695200971846559700,15.548559814453125,0.15291285514831543,-0.08681011199951172,-0.2256903201341629
1695200971856558800,15.558558837890626,0.25491833686828613,-0.0801992416381836,-0.011204749345779419
1695200971866558000,15.568557861328125,0.40287351608276367,-0.015333175659179688,0.24374786019325256
1695200971876556800,15.578556884765625,0.3650481700897217,-0.005257606506347656,0.3174627125263214
1695200971886556000,15.588555908203125,0.30865025520324707,-0.011831283569335938,0.20644870400428772
1695200971896555000,15.598554931640624,0.3102233409881592,-0.011153221130371094,0.2138221561908722
1695200971906554000,15.60855419921875,0.10628128051757812,-0.11096000671386719,-0.12190145254135132
1695200971916553200,15.61855322265625,0.14768004417419434,-0.076385498046875,-0.1861797273159027
1695200971926552000,15.628552001953125,0.10356640815734863,-0.017642974853515625,-0.03582262992858887
1695200971936551200,15.63855126953125,0.14645600318908691,0.000629425048828125,0.05352860689163208
1695200971946550300,15.64855029296875,0.17056632041931152,0.050131797790527344,0.10317179560661316
1695200971956549400,15.65854931640625,0.25040197372436523,0.07345962524414062,0.17458757758140564
1695200971966548500,15.668548583984375,0.35559701919555664,0.06359100341796875,0.2577087879180908
1695200971976547300,15.67854736328125,0.27877068519592285,0.03213787078857422,0.2761337161064148
1695200971986546200,15.688546142578126,0.2855980396270752,0.034149169921875,0.2873533368110657
1695200971996545000,15.698544921875,0.06709504127502441,0.019321441650390625,0.0904478132724762
1695200972006544000,15.7085439453125,0.02575087547302246,-0.012266159057617188,-0.06988799571990967
1695200972016542700,15.718542724609375,-0.08665013313293457,-0.026899337768554688,-0.1430116891860962
1695200972026541300,15.728541259765626,-0.11906003952026367,-0.03173637390136719,-0.03317651152610779
1695200972036540200,15.7385400390625,0.03388023376464844,-0.029142379760742188,0.030019357800483704
1695200972046539000,15.7485390625,0.14651036262512207,0.038186073303222656,0.16886809468269348
1695200972056537600,15.75853759765625,0.17963624000549316,0.016798019409179688,0.20365320146083832
1695200972066536400,15.768536376953126,0.13684630393981934,-0.05770397186279297,0.07857866585254669
1695200972076535000,15.77853515625,0.11524033546447754,-0.05333709716796875,-0.1314326822757721
1695200972086534000,15.788533935546875,0.1184244155883789,0.037367820739746094,-0.1956019252538681
1695200972096532500,15.798532470703124,0.10225749015808105,0.14055633544921875,-0.05279240757226944
1695200972106531300,15.80853125,0.20029449462890625,0.03578758239746094,0.17852100729942322
1695200972116530000,15.818530029296875,0.18665814399719238,-0.04007434844970703,0.23199637234210968
1695200972126528800,15.82852880859375,0.024599313735961914,-0.029817581176757812,0.14245091378688812
1695200972136527400,15.83852734375,0.01783609390258789,-0.010138511657714844,0.09601350128650665
1695200972146526200,15.848526123046875,0.2118675708770752,0.016577720642089844,0.12226415425539017
1695200972156525000,15.858525146484375,0.22428059577941895,0.019361495971679688,0.14773645997047424
1695200972166523600,15.868523681640625,0.20575380325317383,0.005324363708496094,0.05001198500394821
1695200972176522500,15.8785224609375,-0.042552947998046875,-0.011178970336914062,-0.19009053707122803
1695200972186521300,15.888521240234375,-0.25667500495910645,-0.044358253479003906,-0.2825058698654175
1695200972196520000,15.89852001953125,-0.26107847690582275,-0.07972049713134766,-0.15605610609054565
1695200972206518800,15.908518798828124,-0.24442851543426514,-0.07651138305664062,-0.1273718625307083
1695200972216517600,15.918517578125,0.1807880401611328,-0.020461082458496094,0.22525925934314728
1695200972226516200,15.92851611328125,0.3992917537689209,0.07355690002441406,0.44964465498924255
1695200973546654000,17.248654052734373,0.3556870222091675,0.17407608032226562,0.10446494817733765
1695200973556651800,17.25865185546875,-0.5561460256576538,0.37111377716064453,-1.2525469064712524
1695200973566649900,17.26864990234375,-0.9847238063812256,0.2167959213256836,-2.271219253540039
1695200973576648400,17.2786484375,-0.9319407343864441,-0.1379995346069336,-4.355199813842773
1695200973586647000,17.28864697265625,-2.4356460571289062,4.748727798461914,-2.8943707942962646
1695200973596645400,17.298645263671876,-0.1844853162765503,-0.0852365493774414,-0.17909610271453857
1695200973606644200,17.308644287109374,-3.6859378814697266,1.962026596069336,-6.701398849487305
1695200973616642600,17.318642578125,-2.761960506439209,0.666996955871582,-6.471807956695557
1695200973626641200,17.32864111328125,-0.22470760345458984,-0.30012035369873047,-0.5176149606704712
1695200973636639700,17.3386396484375,-0.7519888281822205,-1.047133445739746,-2.4760966300964355
1695200973646638300,17.348638427734375,-0.9944118857383728,-0.5779790878295898,2.249255418777466
1695200973656637200,17.35863720703125,0.34277498722076416,0.254974365234375,-0.005029797554016113
1695200973666635800,17.3686357421875,0.22123301029205322,-0.004067420959472656,0.05496025085449219
1695200973676634400,17.37863427734375,-0.044803619384765625,-0.20121383666992188,-0.2273697853088379
1695200973686633200,17.38863330078125,-0.05325424671173096,-0.20244407653808594,-0.22522282600402832
1695200973696631800,17.3986318359375,-0.356703519821167,-0.22792434692382812,-0.5198466777801514
1695200973706630400,17.40863037109375,-0.4088571071624756,-0.09542465209960938,-0.5801571607589722
1695200973716629200,17.418629150390625,0.21006131172180176,0.09954547882080078,0.0960124135017395
1695200973726627800,17.4286279296875,0.39671003818511963,0.09613895416259766,0.5082525014877319
1695200973736626400,17.43862646484375,0.48537886142730713,0.044930458068847656,0.6195114254951477
1695200973746625300,17.448625244140626,0.4700162410736084,0.010217666625976562,0.4089951515197754
1695200973756624000,17.458623779296875,0.4605677127838135,0.0086517333984375,0.4100465178489685
1695200973766622500,17.46862255859375,-0.054278016090393066,-0.03135967254638672,-0.2220267653465271
1695200973776621300,17.478621337890626,-0.05588674545288086,-0.03526592254638672,-0.40582695603370667
1695200973786620200,17.4886201171875,-0.0633774995803833,-0.0363922119140625,-0.4036031663417816
1695200973796619000,17.498618896484373,0.004255414009094238,-0.0013322830200195312,-0.3543786108493805
1695200973806617900,17.508617919921875,0.09219956398010254,-0.006688117980957031,-0.09571713209152222
1695200973816616700,17.51861669921875,0.17329645156860352,-0.011920928955078125,0.15165549516677856
1695200973826615800,17.52861572265625,0.1464672088623047,-0.0076236724853515625,0.08994114398956299
1695200973836614700,17.53861474609375,0.14115679264068604,-0.008187294006347656,0.09478461742401123
1695200973846613800,17.54861376953125,0.09012854099273682,-0.013569831848144531,-0.05111593008041382
1695200973856612900,17.55861279296875,0.055660247802734375,-0.023795127868652344,-0.05344796180725098
1695200973866612000,17.568612060546876,0.16018903255462646,-0.06751155853271484,-0.11337220668792725
1695200973876610800,17.57861083984375,0.15485072135925293,-0.0681295394897461,-0.10877054929733276
1695200973886610000,17.58860986328125,0.16220629215240479,0.015163421630859375,-0.054348528385162354
1695200973896609000,17.598609130859376,0.03304886817932129,0.04088020324707031,-0.05632030963897705
1695200973906608000,17.608608154296874,0.03551638126373291,-0.024469375610351562,-0.08777183294296265
1695200973916607200,17.618607177734376,0.050482988357543945,-0.0873098373413086,-0.03507208824157715
1695200973926606000,17.628606201171873,0.0151442289352417,-0.06148338317871094,0.023316025733947754
1695200973936605200,17.638605224609375,0.01817953586578369,-0.0069179534912109375,-0.0163956880569458
1695200973946604300,17.648604248046876,0.19096136093139648,-0.019408226013183594,-0.03426021337509155
1695200973956603400,17.658603271484374,0.11913013458251953,-0.05353355407714844,0.03417789936065674
1695200973966602500,17.6686025390625,0.11369788646697998,-0.05433368682861328,0.036801815032958984
1695200973976601300,17.678601318359377,0.15099787712097168,0.03326702117919922,-0.07423621416091919
1695200973986600400,17.688600341796874,0.1458827257156372,0.03243064880371094,-0.07275384664535522
1695200973996599600,17.698599609375,0.11884438991546631,0.01956939697265625,0.01785379648208618
1695200974006598700,17.7085986328125,0.1204075813293457,-0.022066116333007812,-0.054519593715667725
1695200974016597500,17.718597412109375,0.11474382877349854,-0.023042678833007812,-0.05342686176300049
1695200974026596600,17.7285966796875,0.0751030445098877,-0.033753395080566406,-0.05291098356246948
1695200974036595700,17.738595703125,0.06933224201202393,-0.03484153747558594,-0.05252492427825928
1695200974046594800,17.7485947265625,0.0544203519821167,-0.05738544464111328,-0.14799219369888306
1695200974056594000,17.758593994140625,-0.0008653402328491211,-0.07751274108886719,-0.21026819944381714
1695200974066592800,17.7685927734375,-0.1653536558151245,-0.08791160583496094,-0.27538153529167175
1695200974076591900,17.778591796875,-0.08422160148620605,-0.06930065155029297,-0.15353161096572876
1695200974086591000,17.788591064453126,0.11464428901672363,0.004544258117675781,-0.006754040718078613
1695200974096589800,17.79858984375,0.1290264129638672,0.06641292572021484,0.130731463432312
1695200974106588700,17.808588623046877,0.166731595993042,0.06347465515136719,0.1408294439315796
1695200974116587500,17.81858740234375,0.03356671333312988,-0.016309738159179688,0.059159278869628906
1695200974126586000,17.828586181640624,-0.00400543212890625,-0.05071258544921875,-0.09046328067779541
1695200974136585000,17.8385849609375,-0.0010974407196044922,0.003437042236328125,-0.1919960379600525
1695200974146583800,17.848583740234375,-0.0077877044677734375,0.0361175537109375,-0.18001067638397217
1695200974156582400,17.85858251953125,0.02613234519958496,-0.014964103698730469,-0.06425309181213379
1695200974166581200,17.868581298828126,0.07434475421905518,-0.05646991729736328,-0.11112970113754272
1695200974176579800,17.878579833984375,0.04587960243225098,-0.009440422058105469,-0.11061066389083862
1695200974186578700,17.88857861328125,-0.023295164108276367,0.03753948211669922,-0.007749497890472412
1695200974196577300,17.898577392578126,0.05590212345123291,0.03903007507324219,0.011624753475189209
1695200974206576000,17.908576171875,0.051700711250305176,0.03832054138183594,0.013228654861450195
1695200974216574700,17.91857470703125,0.17906475067138672,-0.0006504058837890625,0.02053886651992798
1695200974226573600,17.928573486328126,-0.005491495132446289,-0.04702949523925781,-0.13363003730773926
1695200974236572200,17.938572265625,-0.09201741218566895,-0.036072731018066406,-0.21000540256500244
1695200974246570800,17.94857080078125,-0.054337263107299805,-0.03479194641113281,-0.22237658500671387
1695200974256569600,17.958569580078127,-0.03830909729003906,-0.000019073486328125,-0.15082216262817383
1695200974266568400,17.968568359375,0.0043267011642456055,-0.029788970947265625,-0.030862927436828613
1695200974276567300,17.9785673828125,0.056876182556152344,-0.0666646957397461,-0.037543416023254395
1695200974286566000,17.98856591796875,0.07553601264953613,-0.048590660095214844,-0.020881950855255127
1695200974296564700,17.998564697265625,0.06981945037841797,-0.04983711242675781,-0.02176898717880249
1695200974306563600,18.0085634765625,0.14327359199523926,0.0327606201171875,0.061253488063812256
1695200974316562200,18.018562255859376,0.1376335620880127,0.031617164611816406,0.0613940954208374
1695200974326561000,18.02856103515625,0.25921154022216797,0.018672943115234375,0.22812235355377197
1695200974336559600,18.0385595703125,0.12258434295654297,-0.022258758544921875,0.17158740758895874
1695200974346558500,18.048558349609376,0.08208560943603516,-0.056153297424316406,0.04547601938247681
1695200974356557000,18.05855712890625,0.03063678741455078,-0.05734825134277344,-0.0998539924621582
1695200974366556000,18.068555908203123,0.003097057342529297,-0.02982616424560547,-0.16379886865615845
1695200974376554800,18.0785546875,-0.055460333824157715,0.004918098449707031,-0.14857280254364014
1695200974386553300,18.08855322265625,0.010583639144897461,-0.024944305419921875,-0.10913020372390747
1695200974396552200,18.09855224609375,0.0025191307067871094,-0.04999256134033203,-0.06244713068008423
1695200974406551000,18.108551025390625,0.008875131607055664,-0.027167320251464844,-0.011240005493164062
1695200974416549600,18.118549560546874,-0.008862972259521484,-0.013966560363769531,-0.012719452381134033
1695200974426548500,18.128548583984376,-0.019273996353149414,-0.02464580535888672,-0.040068089962005615
1695200974436547300,18.13854736328125,0.03231072425842285,-0.035308837890625,-0.06904435157775879
1695200974446546200,18.148546142578127,0.026734352111816406,-0.03634071350097656,-0.0669173002243042
1695200974456544800,18.158544677734376,0.0860595703125,-0.020613670349121094,-0.1946302056312561
1695200974466543600,18.168543701171874,-0.04902386665344238,0.021277427673339844,-0.21549773216247559
1695200974476542200,18.178542236328123,-0.0668954849243164,-0.018320083618164062,-0.1869046688079834
1695200974486541000,18.188541015625,-0.0777902603149414,-0.08429527282714844,-0.1917726993560791
1695200974496539600,18.19853955078125,-0.05033421516418457,-0.049724578857421875,-0.15612715482711792
1695200974506538500,18.20853857421875,0.029798030853271484,-0.005618095397949219,-0.0467875599861145
1695200974516537300,18.218537353515625,0.1339282989501953,0.024170875549316406,0.06788396835327148
1695200974526536200,18.2285361328125,0.02180957794189453,0.05861186981201172,0.13288098573684692
1695200974536534800,18.23853466796875,-0.07647371292114258,-0.0148773193359375,0.026777982711791992
1695200974546533600,18.24853369140625,0.0016062259674072266,-0.06707000732421875,-0.07279592752456665
1695200974556532200,18.2585322265625,0.08174610137939453,-0.037926673889160156,-0.07654404640197754
1695200974566531000,18.268531005859376,0.11403036117553711,-0.011118888854980469,0.03071671724319458
1695200974576529700,18.27852978515625,0.10573649406433105,-0.012951850891113281,0.03108900785446167
1695200974586528500,18.288528564453124,0.22026586532592773,-0.09125518798828125,-0.08588087558746338
1695200974596527000,18.298527099609377,0.21147751808166504,-0.0929422378540039,-0.08209466934204102
1695200974606526000,18.30852587890625,0.09278392791748047,-0.05868721008300781,-0.12127500772476196
1695200974616524500,18.318524658203124,0.11602258682250977,0.0021677017211914062,-0.07773423194885254
1695200974626523400,18.3285234375,0.11556625366210938,0.015287399291992188,0.07246279716491699
1695200974636522000,18.33852197265625,0.18179082870483398,0.040093421936035156,0.18445312976837158
1695200974646520800,18.348520751953124,0.1716756820678711,0.02342700958251953,0.3214203715324402
1695200974656519400,18.35851953125,0.19604206085205078,0.015584945678710938,0.2780997157096863
1695200974666518300,18.368518310546875,0.16825056076049805,-0.02896595001220703,0.19441235065460205
1695200974676517000,18.37851708984375,0.049880027770996094,-0.03751087188720703,0.05307215452194214
1695200974686515700,18.388515625,-0.05163860321044922,-0.01737213134765625,-0.14638715982437134
1695200974696514600,18.3985146484375,-0.07638096809387207,-0.04270744323730469,-0.15948545932769775
1695200974706513200,18.40851318359375,-0.048040151596069336,-0.04156970977783203,-0.06177729368209839
1695200974716512000,18.418511962890626,0.02342391014099121,-0.018797874450683594,0.04424095153808594
1695200974726510800,18.4285107421875,0.13109350204467773,-0.022190093994140625,0.09645253419876099
1695200974736509400,18.438509521484374,0.1282668113708496,-0.025709152221679688,0.09081494808197021
1695200974746508300,18.44850830078125,0.08169341087341309,0.020837783813476562,0.029333293437957764
1695200974756507100,18.458507080078125,0.055970191955566406,0.031219482421875,-0.05246859788894653
1695200974766505700,18.468505615234374,0.006052255630493164,-0.03032207489013672,-0.17750662565231323
1695200974776504600,18.478504638671875,-0.0005729198455810547,-0.03195953369140625,-0.1781320571899414
1695200974786503400,18.48850341796875,-0.06923985481262207,-0.08624839782714844,-0.2198498249053955
1695200974796502000,18.498501953125,-0.22616219520568848,-0.035213470458984375,-0.2028355598449707
1695200974806500900,18.5085009765625,-0.12908673286437988,-0.04882335662841797,-0.19371545314788818
1695200974816499500,18.51849951171875,-0.011024951934814453,-0.0649271011352539,-0.0834159255027771
1695200974826498300,18.528498291015627,-0.09763479232788086,-0.031019210815429688,-0.09995508193969727
1695200974836497200,18.5384970703125,-0.024404525756835938,-0.0356597900390625,-0.11506921052932739
1695200974846495700,18.548495849609374,-0.03301572799682617,-0.03808879852294922,-0.11910033226013184
1695200974856494600,18.55849462890625,-0.07781124114990234,-0.11006927490234375,-0.25064969062805176
1695200974866493400,18.568493408203125,-0.08640885353088379,-0.1125631332397461,-0.2554199695587158
1695200974876492000,18.578491943359374,0.00896310806274414,-0.05017280578613281,-0.185774028301239
1695200974886491000,18.588490966796876,0.016739606857299805,0.036407470703125,-0.013165116310119629
1695200974896489700,18.59848974609375,0.1924750804901123,0.04892444610595703,0.21055561304092407
1695200974906488800,18.60848876953125,0.008839845657348633,0.011133193969726562,0.07320958375930786
1695200974916487700,18.61848779296875,-0.1822526454925537,-0.10104656219482422,-0.20172619819641113
1695200974926486500,18.628486572265626,-0.2546873092651367,-0.1489410400390625,-0.3507877290248871
1695200974936485400,18.6384853515625,-0.32718515396118164,-0.060321807861328125,-0.46545323729515076
1695200974946484200,18.648484130859377,-0.41161656379699707,0.0021238327026367188,-0.42741334438323975
1695200974956483000,18.658483154296874,-0.35297155380249023,-0.10301685333251953,-0.2891504168510437
1695200974966482000,18.66848193359375,-0.14862489700317383,-0.14595985412597656,-0.1527445912361145
1695200974976480800,18.678480712890625,-0.048085689544677734,-0.02880096435546875,-0.05550837516784668
1695200974986479600,18.688479736328127,0.13109970092773438,0.014007568359375,-0.20777130126953125
1695200974996478500,18.698478515625,-0.06859445571899414,-0.18035030364990234,-0.37872281670570374
1695200975006477300,18.708477294921874,-0.4464991092681885,-0.2026968002319336,-0.5652333498001099
1695200975016476200,18.71847607421875,-0.45757222175598145,-0.20606231689453125,-0.5708354115486145
1695200975026475300,18.728475341796877,0.3025996685028076,0.11639595031738281,0.011755049228668213
1695200975036474000,18.73847412109375,0.3290228843688965,0.11637687683105469,0.6019285321235657
1695200975046473000,18.748472900390624,0.23285341262817383,-0.05845928192138672,0.5684100985527039
1695200975056471800,18.758471923828125,0.012926578521728516,-0.2220745086669922,0.09303855895996094
1695200975066470700,18.768470703125,-0.20064139366149902,-0.28105831146240234,-0.46934452652931213
1695200975076469500,18.778469482421876,-0.07380247116088867,-0.098297119140625,-0.5284397602081299
1695200975086468400,18.78846826171875,0.28544092178344727,0.22193622589111328,-0.1265164017677307
1695200975096467200,18.79846728515625,0.8323523998260498,0.31374359130859375,0.4852849245071411
1695200975106466000,18.808466064453125,0.8272624015808105,0.3128032684326172,0.49050378799438477
1695200975116465000,18.81846484375,0.48056626319885254,0.13232994079589844,0.8766823410987854
1695200975126463500,18.82846337890625,0.24091601371765137,0.037247657775878906,0.31501156091690063
1695200975136462600,18.838462646484373,-0.17863893508911133,-0.05554676055908203,-0.11538940668106079
1695200975146461400,18.84846142578125,-0.5506012439727783,-0.06926822662353516,-0.3858027160167694
1695200975156460300,18.858460205078124,-0.5567765235900879,-0.07104682922363281,-0.38681772351264954
1695200975166459100,18.868459228515626,-0.5199625492095947,-0.1589641571044922,-0.3028336763381958
1695200975176458000,18.8784580078125,-0.25125980377197266,-0.23008441925048828,-0.037780046463012695
1695200975186456600,18.88845654296875,-0.10455179214477539,-0.22684764862060547,0.13990694284439087
1695200975196455400,18.898455322265626,-0.11824369430541992,-0.2618904113769531,0.06668651103973389
1695200975206454000,18.9084541015625,-0.1537771224975586,-0.18674373626708984,-0.330505907535553
1695200975216452900,18.918452880859373,-0.05766439437866211,-0.06125164031982422,-0.6357368230819702
1695200975226451500,18.928451416015626,0.02186131477355957,0.06928348541259766,-0.40928569436073303
1695200975236450300,18.9384501953125,0.35698843002319336,0.11835384368896484,0.0723455548286438
1695200975246449000,18.948448974609374,0.7833597660064697,0.11006450653076172,0.5139079093933105
1695200975256447700,18.95844775390625,0.8354218006134033,0.10764694213867188,0.6509283185005188
1695200975266446300,18.9684462890625,0.7257931232452393,0.009604454040527344,0.4988897442817688
1695200975276445200,18.978445068359374,0.7234392166137695,0.009329795837402344,0.5037930011749268
1695200975286443800,18.98844384765625,-0.3817484378814697,-0.22091388702392578,-0.4968996047973633
1695200975296442600,18.998442626953125,-0.8431645631790161,-0.12519454956054688,-0.6197821497917175
1695200975306441500,19.00844140625,0.9878427982330322,-0.07935047149658203,-0.4445246756076813
1695200975316440000,19.018440185546876,-0.16029000282287598,-0.13733386993408203,0.053798139095306396
1695200975326439000,19.02843896484375,0.23882842063903809,-0.15211009979248047,0.3876524567604065
1695200975336437500,19.0384375,0.6827311515808105,0.05692291259765625,0.2834833860397339
1695200975346436400,19.048436279296876,0.8020179271697998,0.026697158813476562,-0.03285712003707886
1695200975356435200,19.058435302734374,0.27367448806762695,0.05391120910644531,-0.19102615118026733
1695200975366433800,19.068433837890623,0.13281607627868652,0.04066753387451172,-0.34858694672584534
1695200975376432600,19.0784326171875,0.0394744873046875,0.04647254943847656,-0.3360476791858673
1695200975386431200,19.08843115234375,0.15382027626037598,0.057773590087890625,-0.04306143522262573
1695200975396430000,19.09843017578125,0.33876538276672363,0.03603649139404297,0.22569388151168823
1695200975406429000,19.108428955078125,0.34654760360717773,0.03821086883544922,0.22591513395309448
1695200975416427500,19.118427490234374,0.17771363258361816,-0.01230621337890625,0.18583077192306519
1695200975426426400,19.12842626953125,-0.031702280044555664,-0.05815887451171875,-0.05268985033035278
1695200975436425200,19.13842529296875,-0.12416791915893555,-0.06339359283447266,-0.22859102487564087
1695200975446423800,19.148423828125,-0.08418917655944824,0.005887031555175781,-0.2859933376312256
1695200975456422700,19.158422607421876,0.04185128211975098,0.09678363800048828,-0.07117849588394165
1695200975466421200,19.168421142578126,0.5085427761077881,0.02997589111328125,0.1669248342514038
1695200975476420000,19.178420166015623,0.6659560203552246,0.054058074951171875,0.4914930462837219
1695200975486419000,19.1884189453125,0.46369457244873047,0.12082958221435547,0.49204903841018677
1695200975496417500,19.19841748046875,0.522890567779541,0.07730484008789062,0.12032479047775269
1695200975506416400,19.20841650390625,0.5317468643188477,0.07920265197753906,0.11444598436355591
1695200975516415000,19.2184150390625,-0.16738128662109375,0.08373737335205078,-0.13492727279663086
1695200975526413800,19.228413818359375,-0.04607868194580078,-0.004519462585449219,-0.05396318435668945
1695200975536412700,19.23841259765625,-0.03435087203979492,-0.025336265563964844,0.15714240074157715
1695200975546411300,19.248411376953126,-0.0218050479888916,-0.021851539611816406,0.1595991849899292
1695200975556410000,19.25841015625,-0.0883169174194336,-0.10934162139892578,0.12424319982528687
1695200975566408700,19.26840869140625,-0.2676968574523926,-0.1299571990966797,-0.3643810749053955
1695200975576407600,19.278407470703126,-0.2673161029815674,-0.0739908218383789,-0.5068223476409912
1695200975586406400,19.288406494140624,-0.027341365814208984,-0.010835647583007812,-0.340490460395813
1695200975596405000,19.298405029296877,-0.01436161994934082,-0.00730133056640625,-0.337649941444397
1695200975606403800,19.30840380859375,0.22505807876586914,0.006259918212890625,0.20312345027923584
1695200975616402400,19.31840234375,0.2205827236175537,0.02471923828125,0.26319408416748047
1695200975626401000,19.328401123046874,0.15882229804992676,-0.05744457244873047,0.15696191787719727
1695200975636399900,19.33839990234375,-0.05132579803466797,-0.0702676773071289,0.011649608612060547
1695200975646398700,19.348398681640624,-0.10869407653808594,-0.042532920837402344,-0.09554290771484375
1695200975656397300,19.358397216796874,-0.0843510627746582,-0.10329723358154297,-0.14737534523010254
1695200976856557300,20.558557373046874,-0.18027091026306152,-0.1081695556640625,-0.5129894018173218
1695200976866557200,20.56855712890625,-0.07083070278167725,-0.06912517547607422,-0.38624298572540283
1695200976876556300,20.578556396484377,0.1770726442337036,-0.027688980102539062,-0.15563589334487915
1695200976886555000,20.588554931640626,0.2702885866165161,0.015913963317871094,0.03686434030532837
1695200976896553700,20.5985537109375,0.25259900093078613,0.042403221130371094,-0.012258827686309814
1695200976906552300,20.60855224609375,0.24098455905914307,0.04437828063964844,-0.1875433325767517
1695200976916551200,20.61855126953125,0.09232616424560547,-0.018543243408203125,-0.28274309635162354
1695200976926550000,20.628550048828124,-0.06604421138763428,-0.0958547592163086,-0.3110300302505493
1695200976936548600,20.638548583984374,0.9651954174041748,0.1786956787109375,0.3978710174560547
1695200976946547500,20.64854736328125,-0.2751582860946655,0.5658025741577148,0.32795846462249756
1695200976956546000,20.658546142578125,0.0004278421401977539,-0.023940086364746094,-0.18982654809951782
1695200976966545000,20.668544921875,0.20890331268310547,0.02569866180419922,0.02124476432800293
1695200976976543500,20.67854345703125,0.19867265224456787,0.05130290985107422,0.2474457025527954
1695200976986542300,20.688542236328125,0.19008862972259521,0.050347328186035156,0.25244587659835815
1695200976996541000,20.698541015625,0.21706020832061768,0.020493507385253906,0.03596216440200806
1695200977006539800,20.708539794921876,0.1039503812789917,-0.03312206268310547,-0.06071794033050537
1695200977016539000,20.718538818359374,0.12508940696716309,-0.033951759338378906,-0.10854965448379517
1695200977026538000,20.7285380859375,0.1734563112258911,-0.022591590881347656,-0.18680548667907715
1695200977036537000,20.738537109375,0.10700547695159912,-0.05192852020263672,-0.2122536301612854
1695200977046536200,20.7485361328125,0.10289323329925537,-0.0860452651977539,-0.2306976318359375
1695200977056535300,20.758535400390624,0.0672997236251831,-0.06762027740478516,-0.2639879584312439
1695200977066534400,20.768534423828125,0.060137033462524414,-0.06846237182617188,-0.25970643758773804
1695200977076533500,20.778533447265627,0.11311852931976318,-0.021404266357421875,-0.13123774528503418
1695200977086532600,20.78853271484375,0.1594327688217163,0.06162548065185547,0.1789693832397461
1695200977096531700,20.79853173828125,0.2546125650405884,0.0993356704711914,0.13487058877944946
1695200977106530800,20.80853076171875,0.2707442045211792,0.024656295776367188,0.05900382995605469
1695200977116530000,20.818530029296873,0.1540430784225464,-0.014258384704589844,0.010093331336975098
1695200977126529000,20.828529052734375,-0.03048527240753174,-0.04861259460449219,-0.12118053436279297
