time,seconds_elapsed,z,y,x
1695200956713218300,0.41521826171875,-0.3505780100822449,-0.4346678853034973,-0.612984299659729
1695200956723218400,0.425218505859375,-0.48802268505096436,-0.48414796590805054,-0.5555629730224609
1695200956733217300,0.43521728515625,-0.5802633762359619,-0.5305737257003784,-0.4266704320907593
1695200956743216600,0.445216552734375,-0.6169152855873108,-0.592881977558136,-0.26540201902389526
1695200956753215700,0.4552158203125,-0.6022545099258423,-0.6741271018981934,-0.10291185975074768
1695200956763214600,0.465214599609375,-0.5521635413169861,-0.7572047114372253,0.027202440425753593
1695200956773213400,0.47521337890625,-0.48252490162849426,-0.78408282995224,0.08889983594417572
1695200956783212300,0.48521240234375,-0.4299904704093933,-0.8305085301399231,0.06935214251279831
1695200956793211100,0.495211181640625,-0.41166451573371887,-0.9881117939949036,0.01193080935627222
1695200956803210000,0.5052099609375,-0.45381423830986023,-0.9612336754798889,0.00337869580835104
1695200956813208800,0.515208740234375,-0.5222311615943909,-0.8995363116264343,-0.03510581701993942
1695200956823207400,0.52520751953125,-0.5918697714805603,-0.8182912468910217,-0.11451829224824905
1695200956833206300,0.535206298828125,-0.6450150609016418,-0.7523177862167358,-0.22691749036312103
1695200956843205000,0.545205078125,-0.667006254196167,-0.7022268772125244,-0.3503122925758362
1695200956853204000,0.555203857421875,-0.6431824564933777,-0.6704618334770203,-0.44255295395851135
1695200956863202600,0.56520263671875,-0.597367525100708,-0.6619096994400024,-0.46759840846061707
1695200956873201400,0.575201416015625,-0.5772089958190918,-0.5794429183006287,-0.45904630422592163
1695200956883200300,0.5852001953125,-0.5894263386726379,-0.4041246473789215,-0.461489737033844
1695200956893199000,0.59519921875,-0.6260782480239868,-0.08097690343856812,-0.5164676308631897
1695200956903197700,0.60519775390625,-0.6437933444976807,0.11144565045833588,-0.5616716146469116
1695200956913196500,0.615196533203125,-0.6401281356811523,0.24339252710342407,-0.594658374786377
1695200956923195400,0.6251953125,-0.6101957559585571,0.2659945487976074,-0.623369038105011
1695200956933194000,0.635194091796875,-0.559493899345398,0.17741909623146057,-0.6465818881988525
1695200956943192800,0.64519287109375,-0.4800814390182495,0.014318070374429226,-0.6490253806114197
1695200956953191400,0.65519140625,-0.4183840751647949,-0.23063889145851135,-0.6080974340438843
1695200956963190300,0.665190185546875,-0.42815789580345154,-0.5006413459777832,-0.5073046684265137
1695200956973189000,0.675189208984375,-0.48741182684898376,-0.680235743522644,-0.38635334372520447
1695200956983188000,0.68518798828125,-0.5478875041007996,-0.7187201976776123,-0.30022135376930237
1695200956993186800,0.695186767578125,-0.6297433972358704,-0.6099861860275269,-0.2989996075630188
1695200957003185400,0.705185302734375,-0.6511237025260925,-0.42245060205459595,-0.37841206789016724
1695200957013184300,0.715184326171875,-0.6309651732444763,-0.24591052532196045,-0.5024177432060242
1695200957023183000,0.72518310546875,-0.5875937342643738,-0.1921543926000595,-0.6368080973625183
1695200957033181700,0.735181640625,-0.5094029903411865,-0.22636283934116364,-0.7418769001960754
1695200957043180500,0.7451806640625,-0.4202166497707367,-0.3253229856491089,-0.794411301612854
1695200957053179400,0.755179443359375,-0.3298085927963257,-0.4255049228668213,-0.7876917719841003
1695200957063178000,0.765177978515625,-0.26688945293426514,-0.49819788336753845,-0.7101119160652161
1695200957073176800,0.7751767578125,-0.21496592462062836,-0.5098043084144592,-0.5592281818389893
1695200957083175400,0.785175537109375,-0.10867536813020706,-0.45116126537323,-0.419950932264328
1695200957093174300,0.79517431640625,0.1301729381084442,-0.2941688895225525,-0.4743179380893707
1695200957103173000,0.805173095703125,0.20042243599891663,-0.23002803325653076,-0.661853551864624
1695200957113171700,0.815171630859375,0.13505986332893372,-0.28683850169181824,-0.8286197781562805
1695200957123170600,0.825170654296875,0.09718621522188187,-0.31249484419822693,-0.8988692760467529
1695200957133169400,0.83516943359375,0.10512746125459671,-0.17016324400901794,-0.9184169173240662
1695200957143168000,0.84516796875,0.08924496918916702,0.07235026359558105,-0.936742901802063
1695200957153166800,0.855166748046875,0.06664295494556427,0.34052011370658875,-0.9788926243782043
1695200957163165400,0.86516552734375,0.1203990951180458,0.35518088936805725,-1.0576941967010498
1695200957173164300,0.875164306640625,0.11001438647508621,0.09128709137439728,-1.1297763586044312
1695200957183163000,0.885162841796875,0.008610757067799568,-0.2782863676548004,-1.138939380645752
1695200957193161700,0.89516162109375,-0.1874769926071167,-0.6875661015510559,-1.0558617115020752
1695200957203160600,0.90516064453125,-0.38173213601112366,-0.8555540442466736,-1.0302053689956665
1695200957213159200,0.9151591796875,-0.6169152855873108,-0.9899443984031677,-1.0088250637054443
1695200957223158000,0.925157958984375,-0.7513055801391602,-1.1499910354614258,-0.9239147305488586
1695200957233156900,0.935156982421875,-0.7030472159385681,-1.430989146232605,-0.7711984515190125
1695200957243155500,0.945155517578125,-0.533226728439331,-1.7162631750106812,-0.5671694278717041
1695200957253154300,0.955154296875,-0.3334737718105316,-2.1402037143707275,-0.37780120968818665
1695200957263153000,0.96515283203125,-0.22718322277069092,-2.661271810531616,-0.2183653861284256
1695200957273151700,0.97515185546875,-0.192363902926445,-3.2599196434020996,-0.09069454669952393
1695200957283150600,0.985150634765625,-0.14532728493213654,-3.9465322494506836,-0.00822774413973093
1695200957293149200,0.995149169921875,-0.09096027910709381,-4.820069313049316,0.00398956099525094
1695200957303147800,1.005147705078125,-0.21863111853599548,-5.1719279289245605,-0.049155715852975845
1695200957313146600,1.015146728515625,-0.34202590584754944,-5.461478233337402,-0.16949616372585297
1695200957323145200,1.025145263671875,-0.2980436086654663,-5.878698825836182,-0.38207727670669556
1695200957333144000,1.03514404296875,-0.09767979383468628,-6.328906536102295,-0.6258124709129333
1695200957343142700,1.045142578125,0.2474590539932251,-6.776670932769775,-0.8267871737480164
1695200957353141500,1.0551416015625,0.6420779824256897,-7.146244049072266,-0.9581232070922852
1695200957363140000,1.06514013671875,0.9542301893234253,-7.309956073760986,-1.022264003753662
1695200957373139000,1.075138916015625,1.1448200941085815,-7.242761135101318,-1.0295945405960083
1695200957383137800,1.0851376953125,1.2553867101669312,-6.879907131195068,-0.9086431264877319
1695200957393136600,1.09513671875,1.5205022096633911,-6.434586524963379,-0.5170785188674927
1695200957403135200,1.10513525390625,1.778287410736084,-6.273928642272949,-0.1621657907962799
1695200957413134000,1.115134033203125,1.916953682899475,-6.141982078552246,0.17319923639297485
1695200957423132700,1.125132568359375,1.9713207483291626,-5.944672584533691,0.459695041179657
1695200957433131500,1.135131591796875,2.0776114463806152,-5.633742332458496,0.6838825941085815
1695200957443130000,1.145130126953125,2.325011730194092,-5.305096626281738,0.8127751350402832
1695200957453129000,1.15512890625,2.671983242034912,-5.032039642333984,0.792616605758667
1695200957463127800,1.1651279296875,3.0085699558258057,-4.807241439819336,0.5977505445480347
1695200957473126400,1.17512646484375,3.2266488075256348,-4.586718559265137,0.3088113069534302
1695200957483125200,1.185125244140625,3.235811710357666,-4.083976745605469,0.02231551706790924
1695200957493124000,1.1951240234375,3.082484722137451,-3.8658978939056396,-0.2177545130252838
1695200957503122700,1.205122802734375,2.973140001296997,-3.724177360534668,-0.07236859202384949
1695200957513121500,1.21512158203125,2.911442279815674,-3.3961424827575684,0.19824470579624176
1695200957523120400,1.225120361328125,2.892505645751953,-2.937382698059082,0.40532803535461426
1695200957533119200,1.235119140625,2.934044361114502,-2.434640645980835,0.5122294425964355
1695200957543117800,1.245117919921875,3.0885932445526123,-1.922735571861267,0.5415509939193726
1695200957553116700,1.25511669921875,3.2816267013549805,-1.498184323310852,0.5146729350090027
1695200957563115300,1.265115234375,3.4141845703125,-1.1976385116577148,0.449921190738678
1695200957573114000,1.275114013671875,3.4190714359283447,-1.0931806564331055,0.4083823561668396
1695200957583112700,1.28511279296875,3.2681877613067627,-1.2110776901245117,0.4676362872123718
1695200957593111600,1.295111572265625,2.8986141681671143,-1.789566993713379,0.80116868019104
1695200957603110400,1.3051103515625,2.668928861618042,-2.222670316696167,1.1285924911499023
1695200957613109200,1.315109130859375,2.4606237411499023,-2.465183734893799,1.4383012056350708
1695200957623108000,1.325108154296875,2.275531768798828,-2.381495475769043,1.6349997520446777
1695200957633106700,1.335106689453125,2.107543706893921,-2.083393096923828,1.705249309539795
1695200957643105800,1.345105712890625,1.9646012783050537,-1.7303130626678467,1.7034165859222412
1695200957653104600,1.355104736328125,1.8613649606704712,-1.3130921125411987,1.6478278636932373
1695200957663103500,1.365103515625,1.8027219772338867,-0.8842647075653076,1.5397047996520996
1695200957673102300,1.375102294921875,1.7721787691116333,-0.564171314239502,1.3906537294387817
1695200957683101200,1.38510107421875,1.7263637781143188,-0.3900747001171112,1.2373265027999878
1695200957693100000,1.39510009765625,1.580367088317871,-0.327766478061676,1.0901079177856445
1695200957703099000,1.405098876953125,1.4832395315170288,-0.36686185002326965,1.0681167840957642
1695200957713097700,1.41509765625,1.4417005777359009,-0.4975869953632355,1.1120991706848145
1695200957723096600,1.4250966796875,1.398940086364746,-0.6289230585098267,1.134701132774353
1695200957733095400,1.435095458984375,1.3140298128128052,-0.6912312507629395,1.1127099990844727
1695200957743094300,1.44509423828125,1.2150695323944092,-0.6686292886734009,1.077279806137085
1695200957753093000,1.455093017578125,1.0904531478881836,-0.5971580147743225,1.019858479499817
1695200957763092000,1.465092041015625,0.9291846752166748,-0.5116369128227234,0.943500280380249
1695200957773090800,1.4750908203125,0.7709705829620361,-0.4303918182849884,0.8818029165267944
1695200957783089700,1.485089599609375,0.6231411695480347,-0.3735813498497009,0.8482053279876709
1695200957793088500,1.495088623046875,0.3720755875110626,-0.24957571923732758,0.8347662687301636
1695200957803087400,1.50508740234375,0.22058099508285522,-0.15672419965267181,0.8543139696121216
1695200957813086200,1.515086181640625,0.12834034860134125,-0.06448354572057724,0.8665313124656677
1695200957823085000,1.5250849609375,0.11306870728731155,0.019815856590867043,0.8561466336250305
1695200957833084000,1.535083984375,0.1509423553943634,0.14198890328407288,0.7907840013504028
1695200957843082800,1.545082763671875,0.21569406986236572,0.31547462940216064,0.6557827591896057
1695200957853081600,1.55508154296875,0.3018260896205902,0.5140058398246765,0.4676362872123718
1695200957863080400,1.56508056640625,0.3739081621170044,0.6929894089698792,0.24283787608146667
1695200957873079300,1.575079345703125,0.41056010127067566,0.7974473237991333,0.032089363783597946
1695200957883078100,1.585078125,0.39651018381118774,0.8371535539627075,-0.10169012099504471
1695200957893077000,1.595076904296875,0.2871653139591217,0.7919495105743408,-0.16583098471164703
1695200957903075800,1.605075927734375,0.1814856231212616,0.7217000126838684,-0.15361367166042328
1695200957913074700,1.61507470703125,0.07275161147117615,0.6435092687606812,-0.10230099409818649
1695200957923073500,1.625073486328125,0.004945565015077591,0.5518795251846313,-0.027775432914495468
1695200957933072100,1.635072021484375,-0.009715200401842594,0.4596388339996338,0.03392196074128151
1695200957943071000,1.645071044921875,0.016552003100514412,0.39671972393989563,0.05774570256471634
1695200957953069600,1.655069580078125,0.06725382059812546,0.40038493275642395,0.03331109136343002
1695200957963068400,1.665068359375,0.12834034860134125,0.448032408952713,-0.04549052566289902
1695200957973067000,1.67506689453125,0.18453994393348694,0.5023993849754333,-0.17621567845344543
1695200957983065900,1.68506591796875,0.22607877850532532,0.5512686371803284,-0.33198633790016174
1695200957993064700,1.695064697265625,0.26883935928344727,0.6019704341888428,-0.49447646737098694
1695200958003063300,1.705063232421875,0.2578437924385071,0.6355680823326111,-0.5073046684265137
1695200958013062100,1.715062255859375,0.22607877850532532,0.651450514793396,-0.4309464991092682
1695200958023061000,1.72506103515625,0.19003774225711823,0.6257941722869873,-0.2696780562400818
1695200958033059600,1.7350595703125,0.15766188502311707,0.5359970331192017,-0.0668708011507988
1695200958043058400,1.745058349609375,0.12834034860134125,0.3936653733253479,0.1310495287179947
1695200958053057300,1.755057373046875,0.08252545446157455,0.23789474368095398,0.2855984568595886
1695200958063056000,1.765055908203125,0.022049792110919952,0.11266737431287766,0.3833368718624115
1695200958073054700,1.7750546875,-0.03903673216700554,0.02287018485367298,0.41998881101608276
1695200958083053300,1.78505322265625,-0.09401459991931915,-0.027220766991376877,0.4034954309463501
1695200958093052200,1.79505224609375,-0.17953573167324066,-0.007673078682273626,0.316752552986145
1695200958103051000,1.805051025390625,-0.25467216968536377,0.04180700704455376,0.23917268216609955
1695200958113049600,1.815049560546875,-0.3243107795715332,0.09739574790000916,0.16342538595199585
1695200958123048400,1.82504833984375,-0.3786777853965759,0.15481707453727722,0.0998954027891159
1695200958133047300,1.83504736328125,-0.4165514409542084,0.20735149085521698,0.05774570256471634
1695200958143046000,1.8450458984375,-0.43243396282196045,0.2421708106994629,0.03147849813103676
1695200958153044700,1.855044677734375,-0.4153297245502472,0.2525555193424225,0.010098213329911232
1695200958163043300,1.865043212890625,-0.36768221855163574,0.2568315863609314,-0.016168992966413498
1695200958173042200,1.875042236328125,-0.2821611166000366,0.26477283239364624,-0.0564860999584198
1695200958183041000,1.885041015625,-0.18686611950397491,0.3020355999469757,-0.1279573291540146
1695200958193039600,1.89503955078125,-0.05247576907277107,0.3979414403438568,-0.2831170856952667
1695200958203038500,1.90503857421875,0.013497678562998772,0.46696922183036804,-0.4010140895843506
1695200958213037000,1.915037109375,0.04404094070196152,0.5292774438858032,-0.5219653844833374
1695200958223036000,1.925035888671875,0.03426709771156311,0.5671511292457581,-0.6435275673866272
1695200958233034800,1.93503466796875,-0.015212987549602985,0.5891422629356384,-0.7522615790367126
1695200958243033300,1.945033447265625,-0.07813210785388947,0.5983052253723145,-0.8383936285972595
1695200958253032200,1.9550322265625,-0.111729696393013,0.603192150592804,-0.8860411047935486
1695200958263031000,1.965031005859375,-0.11844921112060547,0.6160203218460083,-0.8793215751647949
1695200958273029600,1.975029541015625,-0.10989709943532944,0.6325136423110962,-0.8072394728660583
1695200958283028500,1.985028564453125,-0.09034941345453262,0.633124589920044,-0.6001561880111694
1695200958293027300,1.99502734375,-0.06896913051605225,0.5634859204292297,-0.4150640070438385
1695200958303026000,2.00502587890625,-0.06957999616861343,0.489571213722229,-0.2128676027059555
1695200958313024800,2.015024658203125,-0.08790595084428787,0.3838915526866913,-0.009449474513530731
1695200958323023400,2.0250234375,-0.1221144050359726,0.24094907939434052,0.18419480323791504
1695200958333022000,2.03502197265625,-0.15082506835460663,0.07235026359558105,0.36623266339302063
1695200958343020800,2.045020751953125,-0.1569337248802185,-0.1066332459449768,0.5305554270744324
1695200958353019600,2.05501953125,-0.13616430759429932,-0.26606908440589905,0.6710543632507324
1695200958363018200,2.065018310546875,-0.10562104731798172,-0.38335520029067993,0.7993361353874207
1695200958373017000,2.07501708984375,-0.09890152513980865,-0.4664328992366791,0.9037940502166748
1695200958383015700,2.085015625,-0.16915103793144226,-0.5287411212921143,1.0442930459976196
1695200958393014500,2.0950146484375,-0.2638351321220398,-0.5140804052352905,1.1536378860473633
1695200958403013000,2.10501318359375,-0.3786777853965759,-0.5159129500389099,1.2886391878128052
1695200958413012000,2.115011962890625,-0.5094029903411865,-0.5366823673248291,1.478007435798645
1695200958423010600,2.125010498046875,-0.6285216808319092,-0.5446236729621887,1.7205208539962769
1695200958433009400,2.135009521484375,-0.6969385743141174,-0.6057101488113403,1.9776952266693115
1695200958443008300,2.14500830078125,-0.6590649485588074,-0.7223854660987854,2.188443660736084
1695200958453006800,2.1550068359375,-0.5179550647735596,-0.803019642829895,2.32527756690979
1695200958463005700,2.165005615234375,-0.3646278977394104,-0.8250107765197754,2.381477117538452
1695200958473004300,2.17500439453125,-0.27666330337524414,-0.8237890601158142,2.383920669555664
1695200958483003100,2.185003173828125,-0.28093937039375305,-0.8537214398384094,2.3826987743377686
1695200958493002000,2.195001953125,-0.30048707127571106,-0.9361882209777832,2.4028573036193848
1695200958503000600,2.20500048828125,-0.29682186245918274,-1.0296506881713867,2.412631034851074
1695200958512999400,2.21499951171875,-0.25467216968536377,-1.0821850299835205,2.369259834289551
1695200958522998300,2.224998291015625,-0.18136833608150482,-1.0638591051101685,2.241588830947876
1695200958532996900,2.234996826171875,-0.111729696393013,-0.9978856444358826,1.9636452198028564
1695200958542995700,2.24499560546875,-0.04575624689459801,-1.090126395225525,1.4065361022949219
1695200958552994300,2.254994384765625,0.02266065776348114,-0.9160297513008118,0.7657385468482971
1695200958562993200,2.2649931640625,0.11367958039045334,-0.48903489112854004,0.3179742991924286
1695200958572991700,2.27499169921875,0.241961270570755,-0.2288062870502472,0.13227126002311707
1695200958582990600,2.284990478515625,0.36108002066612244,-0.44199827313423157,0.16342538595199585
1695200958592989400,2.294989501953125,0.4050622880458832,-0.6264795660972595,0.26971593499183655
1695200958602988000,2.304988037109375,0.4679814279079437,-0.7107790112495422,0.3222503662109375
1695200958612987000,2.31498681640625,0.5712176561355591,-0.7003942728042603,0.25383344292640686
1695200958622985700,2.32498583984375,0.6915581226348877,-0.48475882411003113,0.12005395442247391
1695200958632984300,2.334984375,0.7245448231697083,-0.25079745054244995,-0.07481205463409424
1695200958642983200,2.344983154296875,0.7025536298751831,-0.30088838934898376,-0.19698511064052582
1695200958652982000,2.35498193359375,0.7355403900146484,-0.509193480014801,-0.1633875072002411
1695200958662980900,2.36498095703125,0.8491613268852234,-0.7462091445922852,-0.05587523430585861
1695200958672979700,2.374979736328125,0.9853842854499817,-0.9233601093292236,0.0070438869297504425
1695200958682978600,2.384978515625,1.3079211711883545,-0.9007580280303955,-0.08764022588729858
1695200958692977400,2.394977294921875,1.692155361175537,-0.6050993204116821,-0.35703179240226746
1695200958702976500,2.4049765625,2.2578165531158447,-0.23919101059436798,-0.8029634356498718
1695200958712975400,2.414975341796875,3.020176410675049,0.0033224960789084435,-1.2647775411605835
1695200958722974500,2.424974365234375,3.8588943481445312,0.09189795702695847,-1.5604362487792969
1695200958732973600,2.4349736328125,4.596819877624512,-0.07547912001609802,-1.5408886671066284
1695200958742972700,2.44497265625,4.958451747894287,-0.5617278218269348,-1.2837144136428833
1695200958752971500,2.454971435546875,4.941958427429199,-1.5226188898086548,-0.784637451171875
1695200958762970600,2.464970703125,4.237630844116211,-2.4578535556793213,0.2367292195558548
1695200958772969700,2.4749697265625,2.7868258953094482,-2.5647549629211426,1.273978352546692
1695200958782968800,2.48496875,2.4575695991516113,-0.8634952902793884,0.09439761191606522
1695200958792967700,2.4949677734375,2.456347942352295,1.6783149242401123,-1.242175579071045
1695200958802966800,2.504966796875,2.8246994018554688,2.956245183944702,-2.1462562084198
1695200958812966000,2.5149658203125,3.101421356201172,2.955634355545044,-2.881126880645752
1695200958822965000,2.524965087890625,3.104475736618042,2.4302899837493896,-2.978254556655884
1695200958832964000,2.534964111328125,2.4056460857391357,1.7326819896697998,-2.328904867172241
1695200958842963200,2.544963134765625,1.6964313983917236,0.7675148844718933,-1.7614109516143799
1695200958852962000,2.554962158203125,1.1564265489578247,0.5304992198944092,-1.517675757408142
1695200958862961200,2.564961181640625,0.8204506635665894,0.9636026620864868,-1.5378344058990479
1695200958872960300,2.574960205078125,0.7153818607330322,1.5201009511947632,-1.5976990461349487
1695200958882959400,2.58495947265625,0.9322389960289001,2.0197887420654297,-1.3631268739700317
1695200958892958500,2.59495849609375,1.1258833408355713,2.218319892883301,-1.0240967273712158
1695200958902957600,2.60495751953125,1.2333955764770508,2.3380496501922607,-0.481648325920105
1695200958912956400,2.614956298828125,1.1106116771697998,2.4583899974823,-0.21164587140083313
1695200958922955500,2.62495556640625,0.9719452261924744,2.813913583755493,-0.520132839679718
1695200958932954600,2.63495458984375,1.045859932899475,3.2500712871551514,-0.8469457626342773
1695200958942953700,2.64495361328125,1.0134841203689575,3.3893487453460693,-0.8011308312416077
1695200958952952600,2.65495263671875,0.7477576732635498,2.8707239627838135,-0.4407203495502472
1695200958962951700,2.66495166015625,0.5571677088737488,2.0411689281463623,0.05774570256471634
1695200958972950500,2.674950439453125,0.3238172233104706,1.0998256206512451,0.4297626316547394
1695200958982949400,2.684949462890625,0.3317584693431854,-0.40290290117263794,0.5690399408340454
1695200958992948200,2.6949482421875,0.1301729381084442,-0.4303918182849884,0.610578715801239
1695200959002947000,2.704947021484375,0.1203990951180458,-0.3051644563674927,0.6948781609535217
1695200959012946000,2.71494580078125,0.014719408936798573,-0.30211013555526733,0.8805812001228333
1695200959022944800,2.72494482421875,-0.09218201041221619,-0.49270007014274597,0.9654914736747742
1695200959032943400,2.734943359375,-0.18869870901107788,-0.5146912336349487,1.0833884477615356
1695200959042942200,2.744942138671875,-0.3744017779827118,-0.2825624346733093,1.2929152250289917
1695200959052940800,2.75494091796875,-0.5503309369087219,0.036309219896793365,1.3087977170944214
1695200959062939600,2.764939697265625,-1.0494078397750854,0.19757764041423798,1.4120339155197144
1695200959072938200,2.774938232421875,-1.0750641822814941,-0.3943507671356201,1.3271236419677734
1695200959082937000,2.78493701171875,-1.5332131385803223,-1.2886574268341064,1.5079398155212402
1695200959092935700,2.794935791015625,-1.6364493370056152,-2.1823532581329346,1.6857014894485474
1695200959102934500,2.8049345703125,-1.6407254934310913,-3.0919315814971924,1.99724280834198
1695200959112933000,2.81493310546875,-1.6071277856826782,-3.877504348754883,2.1872220039367676
1695200959122932000,2.824931884765625,-1.502058982849121,-4.221421241760254,2.266634464263916
1695200959132930800,2.834930908203125,-1.2192283868789673,-3.9013280868530273,1.9666996002197266
1695200959142929400,2.844929443359375,-0.9235695600509644,-3.060166835784912,1.478007435798645
1695200959152928300,2.85492822265625,-0.7238166332244873,-2.294752359390259,1.0595647096633911
1695200959162926800,2.8649267578125,-0.6944951415061951,-1.8231645822525024,0.7419148087501526
1695200959172925700,2.87492578125,-0.8050617575645447,-1.5299491882324219,0.43526044487953186
1695200959182924500,2.884924560546875,-1.2051784992218018,-0.9820031523704529,-0.0564860999584198
1695200959192923100,2.894923095703125,-1.317577600479126,-0.3381511867046356,-0.2623476982116699
1695200959202922000,2.904921875,-1.0280275344848633,0.2971486747264862,-0.5305175185203552
1695200959212920600,2.914920654296875,-0.7024363875389099,0.8634207844734192,-0.8561087250709534
1695200959222919400,2.92491943359375,-0.5430005788803101,1.2873612642288208,-1.1065634489059448
1695200959232918300,2.934918212890625,-0.4147188663482666,1.6062328815460205,-1.3063163757324219
1695200959242916900,2.944916748046875,-0.023154236376285553,1.8511898517608643,-1.6160249710083008
1695200959252915700,2.954915771484375,0.35130614042282104,2.0228431224823,-1.7406415939331055
1695200959262914600,2.96491455078125,0.4728683531284332,1.3124067783355713,-1.228736400604248
1695200959272913200,2.9749130859375,0.5987066030502319,0.5066754221916199,-0.956901490688324
1695200959282912000,2.984912109375,0.999434232711792,-0.6435837745666504,-0.8451131582260132
1695200959292910800,2.994910888671875,1.2847082614898682,-1.1848104000091553,-0.8695477247238159
1695200959302909400,3.004909423828125,0.3280932903289795,-0.6747379302978516,-1.013711929321289
1695200959312908300,3.014908203125,-0.6444041728973389,0.1963559091091156,-1.0900700092315674
1695200959322907000,3.024906982421875,-0.5961458086967468,0.46574750542640686,-1.4022222757339478
1695200959332905700,3.03490576171875,-0.23695707321166992,0.3179180920124054,-1.6398487091064453
1695200959342904600,3.044904541015625,0.0037238344084471464,0.4187108874320984,-1.5799839496612549
1695200959352903200,3.054903076171875,0.1503314971923828,0.5781466960906982,-1.2916556596755981
1695200959362902000,3.064902099609375,0.2773914933204651,0.5665402412414551,-0.9031453132629395
1695200959372900900,3.07490087890625,0.21019628643989563,0.0699068084359169,-0.35886436700820923
1695200959382899500,3.0848994140625,-0.006660874933004379,-0.2080368846654892,0.1304386556148529
1695200959392898300,3.094898193359375,0.19492465257644653,0.5640968084335327,-0.17927001416683197
1695200959402897200,3.104897216796875,0.4496554434299469,0.9159551858901978,-0.41384226083755493
1695200959412895700,3.114895751953125,0.6090912818908691,1.1590795516967773,-0.5457891821861267
1695200959422894600,3.12489453125,0.7074406147003174,1.0692822933197021,-0.48836782574653625
1695200959432893200,3.13489306640625,0.7465359568595886,0.8554794788360596,-0.37841206789016724
1695200959442892000,3.14489208984375,0.6768973469734192,0.6630569696426392,-0.2037046253681183
1695200959452890600,3.154890625,0.43621644377708435,0.42543038725852966,-0.05404263734817505
1695200959462889200,3.16488916015625,0.27555885910987854,0.25011205673217773,0.05224791541695595
1695200959472888000,3.17488818359375,0.3287041187286377,0.2268991768360138,0.07546079158782959
1695200959482886700,3.18488671875,0.322595477104187,0.14931929111480713,0.18785999715328217
1695200959492885500,3.194885498046875,0.19920071959495544,-0.17627188563346863,0.3387437164783478
1695200959502884000,3.204884033203125,0.24990253150463104,-0.33265337347984314,0.41571274399757385
1695200959512883000,3.214883056640625,0.2822783887386322,-0.24774311482906342,0.44197994470596313
1695200959522881800,3.2248818359375,0.17537696659564972,-0.30149927735328674,0.5213924050331116
1695200959532880400,3.23488037109375,0.13872505724430084,-0.39190730452537537,0.5048990249633789
1695200959542879200,3.244879150390625,0.09291016310453415,-0.42245060205459595,0.46213847398757935
1695200959552877800,3.2548779296875,0.19431379437446594,-0.5036956667900085,0.37111955881118774
1695200959562876700,3.264876708984375,0.28472182154655457,-0.48903489112854004,0.115167036652565
1695200959572875300,3.274875244140625,0.2828892469406128,-0.24591052532196045,-0.23730221390724182
1695200959582874000,3.2848740234375,0.8216724395751953,0.9923133254051208,-1.1377174854278564
1695200959592873000,3.294873046875,3.6780784130096436,3.488308906555176,-2.6147897243499756
1695200959602871600,3.30487158203125,3.9260895252227783,4.666667938232422,-2.599518060684204
1695200959612870400,3.314870361328125,1.6322904825210571,2.562237024307251,-0.6496362090110779
1695200959622869200,3.324869140625,0.11123611778020859,1.2525418996810913,0.9202874302864075
1695200959632867800,3.334867919921875,0.3067129850387573,1.5989024639129639,0.28865277767181396
1695200959642866700,3.34486669921875,0.7111057639122009,2.500539541244507,-0.27089980244636536
1695200959652865300,3.354865234375,0.6335259079933167,0.8805249929428101,0.8225489854812622
1695200959662864100,3.364864013671875,0.18881601095199585,-1.2147427797317505,1.4639575481414795
1695200959672863000,3.374863037109375,0.08435804396867752,-1.5097907781600952,1.1756291389465332
1695200959682861600,3.384861572265625,0.03793228790163994,-1.6234116554260254,0.9673240184783936
1695200959692860400,3.3948603515625,-0.19114218652248383,-1.361350417137146,0.7895622849464417
1695200959702859300,3.404859375,-0.29071322083473206,-0.7853045463562012,0.5262793302536011
1695200959712857900,3.41485791015625,-0.2033594846725464,-0.22941716015338898,0.20985114574432373
1695200959722856700,3.424856689453125,0.10634920001029968,0.3289136588573456,-0.09863580018281937
1695200959732855300,3.434855224609375,0.32564979791641235,0.6606135368347168,-0.5213545560836792
1695200959742854100,3.444854248046875,0.36535605788230896,0.9929242134094238,-0.7803614139556885
1695200959752853000,3.45485302734375,0.303658664226532,1.1743512153625488,-0.8872628211975098
1695200959762851800,3.464851806640625,0.29449570178985596,0.9947567582130432,-0.7724201679229736
1695200959772850700,3.4748505859375,0.12834034860134125,0.5610424876213074,-0.6416950225830078
1695200959782849500,3.484849609375,-0.43732085824012756,0.4278738498687744,-0.4871460795402527
1695200959792848400,3.494848388671875,-0.29071322083473206,0.792560338973999,-0.6080974340438843
1695200959802847200,3.50484716796875,-0.08057557046413422,0.8780815601348877,-0.6013778448104858
1695200959812846000,3.51484619140625,0.05259305611252785,0.8310449123382568,-0.47981569170951843
1695200959822845000,3.524844970703125,0.05320391803979874,0.7626280188560486,-0.3637513220310211
1695200959832843800,3.53484375,-0.07019085437059402,0.6661112904548645,-0.28189539909362793
1695200959842842600,3.544842529296875,-0.30170878767967224,0.5708162784576416,-0.24218913912773132
1695200959852841700,3.554841796875,-0.5747655630111694,0.5372187495231628,-0.20920240879058838
1695200959862840600,3.564840576171875,-0.7396991848945618,0.4950690269470215,-0.13956376910209656
1695200959872839400,3.57483935546875,-0.6199696063995361,0.46758008003234863,-0.07053599506616592
1695200959882838300,3.58483837890625,-0.25650477409362793,0.4639149010181427,-0.07908811420202255
1695200959892837000,3.594837158203125,-0.10745364427566528,0.2867639660835266,-0.031440623104572296
1695200959902836000,3.6048359375,-0.08729509264230728,0.11999775469303131,0.05041532218456268
1695200959912834800,3.614834716796875,-0.1526576727628708,0.05524604022502899,0.08156944811344147
1695200959922833700,3.624833740234375,-0.14288382232189178,0.013096340000629425,0.09195415675640106
1695200959932832500,3.63483251953125,-0.12822304666042328,0.11266737431287766,0.056523971259593964
1695200959942831400,3.644831298828125,-0.08362989872694016,0.1908581256866455,0.035754553973674774
1695200959952830200,3.654830322265625,-0.03292808309197426,0.1768082231283188,0.020482921972870827
1695200959963437600,3.6654375,0.05686911195516586,0.155427947640419,-0.007006013300269842
1695200959973436400,3.6754365234375,0.14483371376991272,0.13710199296474457,-0.037549275904893875
1695200959983435300,3.685435302734375,0.17904216051101685,0.14870841801166534,-0.06992512941360474
1695200959993434000,3.69543408203125,0.27006110548973083,0.08945450186729431,-0.05831869691610336
1695200960003433000,3.705432861328125,0.37085384130477905,0.005765956826508045,-0.034494947642087936
1695200960013431800,3.715431884765625,0.45087718963623047,-0.015003460459411144,-0.03693841025233269
1695200960023430700,3.7254306640625,0.48080959916114807,0.10961305350065231,-0.06748167425394058
1695200960033429500,3.735429443359375,0.5070767998695374,0.4180999994277954,-0.13834203779697418
1695200960043428400,3.745428466796875,0.5437287092208862,0.8072211146354675,-0.19515250623226166
1695200960053427200,3.75542724609375,0.522959291934967,1.870126724243164,-0.14872674643993378
1695200960063426000,3.765426025390625,0.8387765884399414,2.38569712638855,-0.5561738610267639
1695200960073424600,3.775424560546875,1.1326028108596802,1.9397653341293335,-0.33687326312065125
1695200960083423500,3.785423583984375,1.1460418701171875,1.7210755348205566,-0.28494971990585327
1695200960093422300,3.79542236328125,0.9200217127799988,1.5579744577407837,-0.23608046770095825
1695200960103421000,3.8054208984375,0.5614438056945801,1.3179045915603638,-0.10596618801355362
1695200960113419800,3.815419677734375,0.13872505724430084,0.8426513671875,-0.011892936192452908
1695200960123418400,3.82541845703125,-0.10439931601285934,0.09373055398464203,0.12310828268527985
1695200960133417200,3.835417236328125,-0.1972508281469345,-0.6741271018981934,0.25505518913269043
1695200960143415800,3.845415771484375,-0.4605337381362915,-1.124334692955017,0.31430912017822266
1695200960153414700,3.85541455078125,-0.8123921751976013,-1.2911009788513184,0.3069787323474884
1695200960163413200,3.865413330078125,-0.4049450159072876,-2.3662238121032715,0.44075819849967957
1695200960173412000,3.875412109375,-0.021932506933808327,-2.165860176086426,0.3521827459335327
1695200960183410700,3.88541064453125,-0.17831401526927948,-1.6680047512054443,0.2513899803161621
1695200960193409500,3.895409423828125,-0.1416620910167694,-1.375400424003601,0.21962499618530273
1695200960203408400,3.905408447265625,-0.00727174011990428,-0.37235963344573975,0.05774570256471634
1695200960213407000,3.915406982421875,0.02266065776348114,0.7210891842842102,-0.14994849264621735
1695200960223405800,3.92540576171875,-0.0964580699801445,1.2348268032073975,-0.24035653471946716
1695200960233404700,3.93540478515625,-0.3078174293041229,1.3246240615844727,-0.24035653471946716
1695200960243403300,3.9454033203125,-0.47885972261428833,1.7088582515716553,-0.25501731038093567
1695200960253402000,3.955402099609375,-0.5894263386726379,2.4015793800354004,-0.339316725730896
1695200960263401000,3.96540087890625,-0.47885972261428833,3.3979005813598633,-0.510969877243042
1695200960273399600,3.975399658203125,-0.5992001295089722,5.390542984008789,-0.8964257836341858
1695200960283398400,3.9853984375,-0.8875285387039185,2.3172800540924072,-0.10963137447834015
1695200960293397200,3.995397216796875,0.1619379222393036,0.2910400331020355,0.14448857307434082
1695200960303395800,4.005395751953125,0.16438139975070953,0.06318729370832443,0.18969260156154633
1695200960313394700,4.015394775390625,0.1662139892578125,-0.2630147337913513,0.115167036652565
1695200960323393300,4.025393310546875,0.3317584693431854,-1.7132089138031006,0.32469382882118225
1695200960333392100,4.03539208984375,0.6872820258140564,-2.649665355682373,0.48107531666755676
1695200960343391000,4.045390869140625,1.0257014036178589,-3.4211878776550293,0.5806463360786438
1695200960353389800,4.055389892578125,0.8900892734527588,-2.730299472808838,0.4425908327102661
1695200960363388400,4.065388427734375,0.8858132362365723,-1.1811453104019165,0.19457951188087463
1695200960373387300,4.07538720703125,0.6457432508468628,-0.29722321033477783,0.01987205632030964
1695200960383386000,4.08538623046875,0.13261640071868896,0.0002681698533706367,0.005822156555950642
1695200960393384700,4.095384765625,-0.023154236376285553,-1.6631178855895996,0.21534894406795502
1695200960403383600,4.105383544921875,-0.27971765398979187,-2.7119736671447754,0.4016628563404083
1695200960413382100,4.115382080078125,-0.38784077763557434,-1.9294551610946655,0.3570696711540222
1695200960423381000,4.125381103515625,-0.3096500337123871,-0.7052811980247498,0.15304067730903625
1695200960433379600,4.135379638671875,-0.2687220871448517,0.015539800748229027,0.029035035520792007
1695200960443378400,4.14537841796875,-0.24612005054950714,-0.021722977980971336,0.04858272522687912
1695200960453377000,4.155376953125,-0.22901582717895508,-0.29233628511428833,0.11211270838975906
1695200960463376000,4.1653759765625,-0.13982950150966644,-0.2990557849407196,0.0901215597987175
1695200960473374500,4.17537451171875,0.20775282382965088,0.4126022160053253,-0.05343177169561386
1695200960483373300,4.185373291015625,0.4832530617713928,1.1596903800964355,-0.04243619740009308
1695200960493372000,4.195371826171875,0.38490375876426697,0.9794851541519165,-0.06931427121162415
1695200960503370800,4.205370849609375,0.013497678562998772,0.6257941722869873,-0.028386296704411507
1695200960513369600,4.21536962890625,-0.32003477215766907,0.06563074886798859,0.09684108197689056
1695200960523368200,4.2253681640625,-0.31759127974510193,-0.6130405068397522,0.1701449155807495
1695200960533367000,4.235366943359375,-0.11295142024755478,-0.8677713871002197,0.21779240667819977
1695200960543365600,4.24536572265625,0.04526267200708389,-0.6374751329421997,0.19702297449111938
1695200960553364500,4.255364501953125,0.05198219045996666,-0.3039427101612091,0.12921693921089172
1695200960563363000,4.265363037109375,-0.04636711627244949,-0.0815877765417099,0.10111713409423828
1695200960573362000,4.27536181640625,-0.14960335195064545,0.033865757286548615,0.08645636588335037
1695200960583360500,4.285360595703125,-0.19053131341934204,0.22323398292064667,0.06324348598718643
1695200960593359400,4.295359375,-0.15082506835460663,0.25866416096687317,0.06141089275479317
1695200960603358200,4.305358154296875,-0.10623191297054291,0.1401563137769699,0.08156944811344147
1695200960613356800,4.315356689453125,-0.08607335388660431,-0.03149682283401489,0.11577790230512619
1695200960623355600,4.325355712890625,-0.08424076437950134,-0.1518372744321823,0.13776904344558716
1695200960633354500,4.3353544921875,-0.08057557046413422,-0.1836022585630417,0.13654731214046478
1695200960643353000,4.34535302734375,-0.06530393660068512,-0.14633949100971222,0.14204511046409607
1695200960653352000,4.35535205078125,-0.049421440809965134,-0.11029843986034393,0.1359364539384842
1695200960663350800,4.365350830078125,-0.05675182491540909,-0.09441594779491425,0.13166040182113647
1695200960673349400,4.375349365234375,-0.08362989872694016,-0.06875960528850555,0.13715818524360657
1695200960683348200,4.38534814453125,-0.11906008422374725,0.006376822479069233,0.1353255957365036
1695200960693346800,4.395346923828125,-0.12333613634109497,0.07906978577375412,0.12433001399040222
1695200960703345700,4.405345703125,-0.11906008422374725,0.12732814252376556,0.11822135746479034
1695200960713344300,4.41534423828125,-0.10623191297054291,0.10594785958528519,0.12738433480262756
1695200960723343000,4.425343017578125,-0.08546249568462372,0.027146240696310997,0.14448857307434082
1695200960733342000,4.435342041015625,-0.08057557046413422,-0.054098837077617645,0.14815376698970795
1695200960743340800,4.4453408203125,-0.09401459991931915,-0.07853344827890396,0.16709057986736298
1695200960753339400,4.45533935546875,-0.10012326389551163,-0.08219864219427109,0.1817513406276703
1695200960763338200,4.465338134765625,-0.10745364427566528,-0.057153165340423584,0.1658688485622406
1695200960773337000,4.475337158203125,-0.12089267373085022,0.06074382737278938,0.1499863564968109
1695200960783335700,4.485335693359375,-0.1270013302564621,0.20918408036231995,0.14876462519168854
1695200960793334500,4.49533447265625,-0.11906008422374725,0.2012428343296051,0.15365155041217804
1695200960803333400,4.50533349609375,-0.11906008422374725,0.16764524579048157,0.16647972166538239
1695200960813332200,4.515332275390625,-0.13616430759429932,0.13465853035449982,0.16892316937446594
1695200960823331000,4.5253310546875,-0.16365323960781097,0.12671728432178497,0.15976019203662872
1695200960833330200,4.535330078125,-0.16365323960781097,0.14198890328407288,0.1762535572052002
1695200960843329000,4.5453291015625,-0.13921862840652466,0.09128709137439728,0.15670587122440338
1695200960853328100,4.555328125,-0.12028180807828903,0.054024312645196915,0.14387769997119904
1695200960863327000,4.565326904296875,-0.11111883074045181,0.04119614139199257,0.14876462519168854
1695200960873326000,4.575326171875,-0.09706892818212509,-0.000953560636844486,0.15242980420589447
1695200960883325200,4.5853251953125,-0.07263432443141937,-0.05837489292025566,0.14937548339366913
1695200960893324300,4.59532421875,-0.07263432443141937,-0.009505674242973328,0.1304386556148529
1695200960903323100,4.6053232421875,-0.07568864524364471,0.09617400914430618,0.10600405931472778
1695200960913322200,4.615322265625,-0.054308366030454636,0.14748670160770416,0.08645636588335037
1695200960923321300,4.6253212890625,-0.01826731488108635,0.10961305350065231,0.074849933385849
1695200960933320400,4.635320556640625,0.014719408936798573,0.030200567096471786,0.07240647077560425
1695200960943319300,4.6453193359375,0.062366899102926254,-0.07975517958402634,0.09623020887374878
1695200960953318400,4.655318359375,0.10268400609493256,-0.1768827587366104,0.09073243290185928
1695200960963317500,4.6653173828125,0.11795563250780106,-0.18054793775081635,0.07912598550319672
1695200960973316600,4.675316650390625,0.1106252521276474,-0.1316787302494049,0.06446521729230881
1695200960983315700,4.685315673828125,0.09168843179941177,-0.013781731016933918,0.03697628527879715
1695200960993314800,4.695314697265625,0.09840794652700424,0.06074382737278938,0.0192611925303936
1695200961003313700,4.705313720703125,0.12772947549819946,0.0295897014439106,0.017428595572710037
1695200961013312800,4.715312744140625,0.14788803458213806,-0.09930286556482315,-0.006395148113369942
1695200961023312000,4.725311767578125,0.1711008995771408,-0.20681515336036682,0.0699630081653595
1695200961033311000,4.73531103515625,0.2163049429655075,-0.3754139840602875,0.08889983594417572
1695200961043310000,4.74531005859375,0.22485706210136414,-0.4108441472053528,0.0852346420288086
1695200961053309000,4.755308837890625,0.18881601095199585,-0.28867107629776,0.0998954027891159
1695200961063308000,4.76530810546875,0.13505986332893372,-0.17382842302322388,0.08584550768136978
1695200961073307100,4.77530712890625,0.09107756614685059,-0.033940285444259644,0.05163704976439476
1695200961083306200,4.78530615234375,0.07397333532571793,0.10961305350065231,0.047360993921756744
1695200961093305000,4.79530517578125,0.06053430214524269,0.019815856590867043,0.07240647077560425
1695200961103304200,4.80530419921875,0.026936713606119156,-0.11152017116546631,0.11150184273719788
1695200961113303000,4.815302978515625,0.0012803735444322228,-0.1628328561782837,0.1310495287179947
1695200961123302000,4.825302001953125,0.006167295388877392,-0.1426742970943451,0.14265596866607666
1695200961133301000,4.835301025390625,0.010443353094160557,-0.16405458748340607,0.16281452775001526
1695200961143299800,4.8452998046875,-0.011547796428203583,-0.1781044751405716,0.15792760252952576
1695200961153298400,4.85529833984375,-0.05064317211508751,-0.07792258262634277,0.14387769997119904
1695200961163297300,4.86529736328125,-0.07324518263339996,0.000879035098478198,0.13776904344558716
1695200961173296000,4.875296142578125,-0.08790595084428787,0.02348104864358902,0.08889983594417572
1695200961183294700,4.885294677734375,-0.1019558534026146,0.10472612828016281,0.17686443030834198
1695200961193293300,4.895293212890625,-0.06530393660068512,-0.07120306044816971,0.19396865367889404
1695200961203292200,4.905292236328125,-0.09034941345453262,-0.08952902257442474,0.17808614671230316
1695200961213291000,4.915291015625,-0.1526576727628708,0.06685248017311096,0.17747530341148376
1695200961223289600,4.92528955078125,-0.1825900673866272,0.135880246758461,0.15914933383464813
1695200961233288400,4.935288330078125,-0.171594500541687,0.1309933364391327,0.15976019203662872
1695200961243287000,4.945287109375,-0.15510113537311554,0.10778045654296875,0.15914933383464813
1695200961253286000,4.955285888671875,-0.15632286667823792,0.07357199490070343,0.1762535572052002
1695200961263284500,4.965284423828125,-0.17403794825077057,-0.007062213029712439,0.20374248921871185
1695200961273283300,4.975283447265625,-0.20030516386032104,-0.06081835553050041,0.21779240667819977
1695200961283282000,4.985281982421875,-0.2222963124513626,0.06318729370832443,0.1964121162891388
1695200961293280800,4.99528076171875,-0.22412890195846558,0.13221505284309387,0.19702297449111938
1695200961303279600,5.005279541015625,-0.21985284984111786,0.08640016615390778,0.21779240667819977
1695200961313278200,5.0152783203125,-0.22168543934822083,0.007598552852869034,0.23306402564048767
1695200961323277000,5.025277099609375,-0.2332918792963028,-0.03516201302409172,0.23734009265899658
1695200961333275600,5.035275634765625,-0.24062226712703705,-0.03760547563433647,0.23428575694561005
1695200961343274500,5.0452744140625,-0.2339027374982834,-0.04432499408721924,0.22756624221801758
1695200961353273300,5.0552734375,-0.22107456624507904,-0.0767008513212204,0.20740768313407898
1695200961363272000,5.06527197265625,-0.19053131341934204,-0.10235719382762909,0.1811404824256897
1695200961373270800,5.075270751953125,-0.09401459991931915,-0.0968594029545784,0.1402125060558319
1695200961383269600,5.08526953125,-0.006660874933004379,-0.11335276812314987,0.10844751447439194
1695200961393268500,5.0952685546875,0.07641679793596268,-0.19948476552963257,0.09195415675640106
1695200961403267000,5.10526708984375,0.14239023625850677,-0.28622764348983765,0.062021758407354355
1695200961413266000,5.115265869140625,0.1967572420835495,-0.25690609216690063,0.022926384583115578
1695200961423264500,5.125264404296875,0.23340916633605957,-0.23002803325653076,0.00337869580835104
1695200961433263400,5.135263427734375,0.23768523335456848,-0.24041274189949036,0.00032436943729408085
1695200961443262000,5.145261962890625,0.21263974905014038,-0.2685125470161438,0.004600426182150841
1695200961453260800,5.1552607421875,0.17476609349250793,-0.23063889145851135,0.005822156555950642
1695200961463259600,5.165259765625,0.14422284066677094,-0.10846584290266037,0.00032436943729408085
1695200961473258200,5.17525830078125,0.11184698343276978,0.05341344326734543,-0.03510581701993942
1695200961483257000,5.185257080078125,0.08191458880901337,0.11877602338790894,-0.04487965628504753
1695200961493256000,5.195255859375,0.04648440331220627,0.13649111986160278,-0.03388408198952675
1695200961503254500,5.205254638671875,0.010443353094160557,0.12977160513401031,-0.028997162356972694
1695200961513253400,5.21525341796875,-0.015212987549602985,0.15420620143413544,-0.03327322006225586
1695200961523252200,5.225252197265625,-0.015212987549602985,0.19574503600597382,-0.034494947642087936
1695200961533250800,5.235250732421875,0.006778160575777292,0.17314302921295166,-0.03327322006225586
1695200961543249700,5.245249755859375,0.03426709771156311,0.09678488224744797,-0.025331970304250717
1695200961553248300,5.255248291015625,0.056258246302604675,-0.005840482655912638,-0.0186124537140131
1695200961563247000,5.2652470703125,0.08313631266355515,-0.10418979078531265,-0.010671204887330532
1695200961573245700,5.27524560546875,0.13261640071868896,-0.21658898890018463,-0.007006013300269842
1695200961583244500,5.28524462890625,0.14422284066677094,-0.2385801374912262,-0.00822774413973093
1695200961593243400,5.295243408203125,0.13750332593917847,-0.21048034727573395,-0.013725531287491322
1695200961603242000,5.305241943359375,0.12284255772829056,-0.1726066917181015,-0.0210559144616127
1695200961613240800,5.31524072265625,0.10634920001029968,-0.16100026667118073,-0.020445048809051514
1695200961623239400,5.325239501953125,0.08435804396867752,-0.1628328561782837,-0.020445048809051514
1695200961633238300,5.33523828125,0.05747997760772705,-0.12557007372379303,-0.019834183156490326
1695200961643236900,5.34523681640625,0.027547579258680344,-0.057153165340423584,-0.025942835956811905
1695200961653235700,5.355235595703125,-0.0011630873195827007,-0.016836058348417282,-0.03327322006225586
1695200961663234300,5.365234375,-0.03353894501924515,-0.03210768848657608,-0.03082975745201111
1695200961673233200,5.375233154296875,-0.031095484271645546,-0.04188153147697449,-0.026553701609373093
1695200961683231700,5.385231689453125,-0.009104335680603981,-0.04310326278209686,-0.031440623104572296
1695200961693230600,5.395230712890625,0.006167295388877392,-0.06204008311033249,-0.03327322006225586
1695200961703229400,5.4052294921875,0.014719408936798573,-0.09319421648979187,-0.03266235440969467
1695200961713228000,5.41522802734375,0.021438926458358765,-0.12007228285074234,-0.034494947642087936
1695200961723227000,5.425226806640625,0.03426709771156311,-0.13656564056873322,-0.03510581701993942
1695200961733225700,5.435225830078125,0.047095268964767456,-0.14878293871879578,-0.03816014155745506
1695200961743224300,5.445224365234375,0.05198219045996666,-0.14450690150260925,-0.04182533174753189
1695200961753223200,5.45522314453125,0.04526267200708389,-0.09991372376680374,-0.04426879435777664
1695200961763221800,5.4652216796875,0.034877959638834,-0.03271855041384697,-0.05098831281065941
1695200961773220600,5.475220703125,0.023271523416042328,0.003933361265808344,-0.06442734599113464
1695200961783219500,5.485219482421875,0.02266065776348114,-0.021112114191055298,-0.06320561468601227
1695200961793218000,5.495218017578125,0.016552003100514412,-0.0614292174577713,-0.05892955884337425
1695200961803217000,5.505216796875,0.006167295388877392,-0.08952902257442474,-0.0564860999584198
1695200961813215500,5.515215576171875,0.0025021040346473455,-0.07792258262634277,-0.05282090604305267
1695200961823214300,5.52521435546875,0.0043346998281776905,-0.06265094876289368,-0.04854485020041466
1695200961833213200,5.535213134765625,0.004945565015077591,-0.05593143031001091,-0.043657928705215454
1695200961843211800,5.545211669921875,-0.004217413254082203,-0.054098837077617645,-0.0363275445997715
1695200961853210600,5.555210693359375,-0.015212987549602985,-0.05287710577249527,-0.03388408198952675
1695200961863209200,5.565209228515625,-0.02987375482916832,-0.030275093391537666,-0.03693841025233269
1695200961873208000,5.5752080078125,-0.04209106042981148,0.016761532053351402,-0.03877100721001625
1695200961883207000,5.58520703125,-0.04453451931476593,0.043028734624385834,-0.040603604167699814
1695200961893205800,5.595205810546875,-0.04575624689459801,0.06624161452054977,-0.03816014155745506
1695200961903204400,5.605204345703125,-0.04331279173493385,0.07173940539360046,-0.031440623104572296
1695200961913203200,5.615203125,-0.037204135209321976,0.06807421147823334,-0.029608028009533882
1695200961923202000,5.6252021484375,-0.037204135209321976,0.075404591858387,-0.03327322006225586
1695200961933201200,5.635201171875,-0.040258463472127914,0.05035911872982979,-0.03327322006225586
1695200961943200000,5.645199951171875,-0.0359824076294899,0.003933361265808344,-0.025942835956811905
1695200962252523000,5.95452294921875,0.02571498230099678,-0.04737931862473488,-0.014947261661291122
1695200962262520800,5.964520751953125,0.025104118511080742,-0.0461575873196125,-0.012503799982368946
1695200962272520000,5.97452001953125,0.021438926458358765,-0.005229617469012737,-0.008838609792292118
1695200962282518300,5.984518310546875,0.015941139310598373,0.03692008554935455,-0.01555812731385231
1695200962292516900,5.994516845703125,0.014108543284237385,0.04669392853975296,-0.014947261661291122
1695200962302515500,6.004515380859375,0.016552003100514412,0.03814181685447693,-0.006395148113369942
1695200962312514300,6.014514404296875,0.018995465710759163,0.02287018485367298,-0.006395148113369942
1695200962322513200,6.02451318359375,0.02876931056380272,-0.002175291068851948,-0.007616878487169743
1695200962332512000,6.034511962890625,0.0397648848593235,-0.04188153147697449,-0.0015082262689247727
1695200962342510800,6.0445107421875,0.04831699654459953,-0.07364652305841446,0.002767830388620496
1695200962352509700,6.054509765625,0.0550365149974823,-0.07792258262634277,0.0021569652017205954
1695200962362508500,6.064508544921875,0.06053430214524269,-0.06509441137313843,0.0021569652017205954
1695200962372507100,6.074507080078125,0.0703081414103508,-0.06570527702569962,0.0009352346532978117
1695200962382506000,6.084506103515625,0.07458420842885971,-0.07731171697378159,0.005822156555950642
1695200962392504800,6.0945048828125,0.07275161147117615,-0.07792258262634277,0.008265617303550243
1695200962402503400,6.10450341796875,0.06664295494556427,-0.07547912001609802,0.008265617303550243
1695200962412502300,6.114502197265625,0.05870170518755913,-0.0815877765417099,0.005822156555950642
1695200962422501000,6.124501220703125,0.047706130892038345,-0.07120306044816971,0.0021569652017205954
1695200962432499700,6.134499755859375,0.041597481817007065,-0.04310326278209686,0.0021569652017205954
1695200962442498600,6.14449853515625,0.036099694669246674,-0.022944709286093712,-0.0002864958078134805
1695200962452497400,6.154497314453125,0.029380174353718758,-0.011338270269334316,-0.0015082262689247727
1695200962462496000,6.16449609375,0.023882387205958366,-0.000953560636844486,-0.002119091572239995
1695200962472494800,6.174494873046875,0.02021719515323639,0.011263743974268436,-0.007006013300269842
1695200962482493700,6.18449365234375,0.018995465710759163,0.012485474348068237,-0.00395168736577034
1695200962492492500,6.194492431640625,0.01960633136332035,0.013096340000629425,-0.0015082262689247727
1695200962502491100,6.2044912109375,0.020828062668442726,0.008820283226668835,0.002767830388620496
1695200962512490000,6.214489990234375,0.014719408936798573,0.006376822479069233,0.001546099898405373
1695200962522488600,6.224488525390625,0.004945565015077591,0.016761532053351402,0.005211291369050741
1695200962532487400,6.2344873046875,-0.0017739527393132448,0.031422294676303864,0.0021569652017205954
1695200962542486000,6.244486083984375,-0.003606548300012946,0.04608306661248207,-0.00395168736577034
1695200962552484900,6.25448486328125,-0.008493470028042793,0.06440901756286621,-0.008838609792292118
1695200962562483700,6.264483642578125,-0.01093693170696497,0.06563074886798859,-0.009449474513530731
1695200962572482300,6.274482421875,-0.0023848179262131453,0.013096340000629425,-0.00395168736577034
1695200962582481200,6.284481201171875,0.001891238847747445,-0.01011653896421194,-0.0027299567591398954
1695200962592480000,6.29447998046875,0.004945565015077591,-0.01805778779089451,-0.0002864958078134805
1695200962602478600,6.304478515625,0.010443353094160557,-0.022944709286093712,0.002767830388620496
1695200962612477400,6.3144775390625,0.012886812910437584,-0.024166438728570938,0.004600426182150841
1695200962622476000,6.32447607421875,0.012275947257876396,-0.0046187518164515495,0.0021569652017205954
1695200962632475000,6.334474853515625,0.012275947257876396,0.024091914296150208,-0.00395168736577034
1695200962642473500,6.344473388671875,0.011665082536637783,0.027146240696310997,-0.008838609792292118
1695200962652472300,6.354472412109375,0.015941139310598373,0.013707204721868038,-0.007616878487169743
1695200962662471000,6.364470947265625,0.026325849816203117,-0.006451347842812538,-0.005173417739570141
1695200962672469800,6.3744697265625,0.030601905658841133,-0.06448354572057724,0.0021569652017205954
1695200962682468400,6.38446826171875,0.029380174353718758,-0.0663161426782608,0.008876482956111431
1695200962692467200,6.39446728515625,0.02571498230099678,-0.02660990133881569,0.00398956099525094
1695200962702465800,6.4044658203125,0.028158443048596382,0.000879035098478198,-0.00456255255267024
1695200962712464600,6.414464599609375,0.029380174353718758,0.02348104864358902,-0.00822774413973093
1695200962722463500,6.42446337890625,0.029380174353718758,0.031422294676303864,-0.007616878487169743
1695200962732462000,6.434462158203125,0.02876931056380272,0.014318070374429226,-0.00822774413973093
1695200962742461000,6.4444609375,0.03243450075387955,-0.015003460459411144,-0.007006013300269842
1695200962752459800,6.454459716796875,0.03548882529139519,-0.036383744329214096,-0.00456255255267024
1695200962762458400,6.464458251953125,0.033045366406440735,-0.04737931862473488,-0.008838609792292118
1695200962772457200,6.474457275390625,0.02571498230099678,0.002100765472277999,-0.014336396008729935
1695200962782455800,6.484455810546875,0.027547579258680344,0.027757106348872185,-0.023499375209212303
1695200962792454700,6.49445458984375,0.03182363510131836,0.05035911872982979,-0.026553701609373093
1695200962802453500,6.50445361328125,0.03793228790163994,0.05035911872982979,-0.02166677825152874
1695200962812452000,6.5144521484375,0.04526267200708389,0.011263743974268436,-0.016168992966413498
1695200962822451000,6.524450927734375,0.047706130892038345,-0.0235555749386549,-0.01128207053989172
1695200962832449500,6.534449462890625,0.04831699654459953,-0.04371412843465805,-0.01128207053989172
1695200962842448400,6.544448486328125,0.04526267200708389,-0.048601049929857254,-0.013114665634930134
1695200962852447200,6.554447265625,0.03671055659651756,-0.030275093391537666,-0.014947261661291122
1695200962862445800,6.56444580078125,0.03121277131140232,0.01798326149582863,-0.02411024086177349
1695200962872444700,6.574444580078125,0.025104118511080742,0.07112853974103928,-0.031440623104572296
1695200962882443500,6.584443603515625,0.022049792110919952,0.07235026359558105,-0.029608028009533882
1695200962892442400,6.5944423828125,0.02266065776348114,0.0546351782977581,-0.02716456539928913
1695200962902441000,6.60444091796875,0.024493252858519554,0.021648453548550606,-0.02472110465168953
1695200962912439800,6.614439697265625,0.028158443048596382,0.003933361265808344,-0.02411024086177349
1695200962922438400,6.6244384765625,0.03365623205900192,0.005155091639608145,-0.028997162356972694
1695200962932437200,6.634437255859375,0.0397648848593235,0.006987687665969133,-0.03021889366209507
1695200962942436000,6.64443603515625,0.04648440331220627,-0.005229617469012737,-0.03266235440969467
1695200962952435000,6.65443505859375,0.042208343744277954,-0.007673078682273626,-0.03388408198952675
1695200962962433800,6.664433837890625,0.039154019206762314,0.0033224960789084435,-0.03510581701993942
1695200962972433000,6.674432861328125,0.039154019206762314,0.016150664538145065,-0.03693841025233269
1695200962982431700,6.684431640625,0.034877959638834,0.01737239584326744,-0.03266235440969467
1695200962992430800,6.694430908203125,0.02876931056380272,0.011874609626829624,-0.03082975745201111
1695200963002429700,6.7044296875,0.022049792110919952,-0.010727404616773129,-0.028386296704411507
1695200963012428800,6.7144287109375,0.018384600058197975,-0.028442496433854103,-0.023499375209212303
1695200963022428000,6.724427978515625,0.012886812910437584,-0.024166438728570938,-0.017390722408890724
1695200963032427000,6.734427001953125,0.0031129694543778896,-0.015003460459411144,-0.014947261661291122
1695200963042426000,6.744426025390625,-0.00727174011990428,-0.018668653443455696,-0.011892936192452908
1695200963052425200,6.75442529296875,-0.013991258107125759,-0.019279517233371735,-0.007616878487169743
1695200963062424300,6.76442431640625,-0.012769527733325958,-0.02660990133881569,-0.006395148113369942
1695200963072423200,6.774423095703125,-0.009715200401842594,-0.027831630781292915,0.0009352346532978117
1695200963082422300,6.78442236328125,-0.011547796428203583,-0.036994609981775284,0.00337869580835104
1695200963092421400,6.79442138671875,-0.01093693170696497,-0.05470970273017883,0.0070438869297504425
1695200963102420500,6.80442041015625,-0.009104335680603981,-0.05837489292025566,0.009487348608672619
1695200963112419600,6.814419677734375,-0.00788260530680418,-0.039438072592020035,0.005822156555950642
1695200963122418700,6.824418701171875,-0.003606548300012946,-0.01011653896421194,-0.0002864958078134805
1695200963132417800,6.834417724609375,0.0012803735444322228,-0.000953560636844486,-0.0015082262689247727
1695200963142417000,6.8444169921875,0.010443353094160557,-0.01744692213833332,0.0021569652017205954
1695200963152416000,6.854416015625,0.017773734405636787,-0.06204008311033249,0.0070438869297504425
1695200963162415000,6.8644150390625,0.022049792110919952,-0.107244111597538,0.010098213329911232
1695200963172414200,6.874414306640625,0.01716287061572075,-0.10846584290266037,0.013152538798749447
1695200963182413000,6.8844130859375,0.013497678562998772,-0.06509441137313843,0.006433022208511829
1695200963192412200,6.894412109375,0.005556430201977491,-0.008283942937850952,0.0009352346532978117
1695200963202411300,6.904411376953125,-0.003606548300012946,0.043028734624385834,-0.00456255255267024
1695200963212410400,6.914410400390625,-0.017656449228525162,0.06196556240320206,-0.0027299567591398954
1695200963222409500,6.924409423828125,-0.028652023524045944,0.05768950283527374,-0.005784283392131329
1695200963232408600,6.93440869140625,-0.0359824076294899,0.06685248017311096,-0.010671204887330532
1695200963242407700,6.94440771484375,-0.03781500086188316,0.09250882267951965,-0.010671204887330532
1695200963252406800,6.95440673828125,-0.03292808309197426,0.09739574790000916,-0.01128207053989172
1695200963262405600,6.964405517578125,-0.024986831471323967,0.06929594278335571,-0.002119091572239995
1695200963272404500,6.974404541015625,-0.01215866208076477,0.013707204721868038,0.008265617303550243
1695200963282403300,6.9844033203125,0.000058643065131036565,-0.02050124853849411,0.007654752116650343
1695200963292402200,6.994402099609375,0.014719408936798573,-0.06265094876289368,0.012541675008833408
1695200963302401000,7.004401123046875,0.027547579258680344,-0.08036604523658752,0.014374270103871822
1695200963312400000,7.01439990234375,0.03426709771156311,-0.06326181441545486,0.009487348608672619
1695200963322398500,7.0243984375,0.03793228790163994,-0.04676845669746399,0.005211291369050741
1695200963332397300,7.034397216796875,0.04098661243915558,-0.045546721667051315,0.00398956099525094
1695200963342396000,7.04439599609375,0.04098661243915558,-0.05348797142505646,0.00398956099525094
1695200963352394800,7.054394775390625,0.03793228790163994,-0.06265094876289368,0.005211291369050741
1695200963362393300,7.064393310546875,0.03243450075387955,-0.0461575873196125,0.00337869580835104
1695200963372392200,7.07439208984375,0.022049792110919952,0.002100765472277999,-0.007006013300269842
1695200963382391000,7.08439111328125,0.016552003100514412,0.03264402598142624,-0.012503799982368946
1695200963392390000,7.094389892578125,0.014719408936798573,0.05891123041510582,-0.017390722408890724
1695200963402388500,7.104388427734375,0.01960633136332035,0.07418286055326462,-0.019223317503929138
1695200963412387300,7.11438720703125,0.023271523416042328,0.06685248017311096,-0.02166677825152874
1695200963422386000,7.124385986328125,0.023271523416042328,0.04608306661248207,-0.019223317503929138
1695200963432384800,7.134384765625,0.023882387205958366,0.027146240696310997,-0.01555812731385231
1695200963442383600,7.144383544921875,0.028158443048596382,0.010652878321707249,-0.014947261661291122
1695200963452382200,7.15438232421875,0.03243450075387955,0.003933361265808344,-0.013114665634930134
1695200963462381000,7.164381103515625,0.03121277131140232,0.006376822479069233,-0.007006013300269842
1695200963472380000,7.1743798828125,0.02876931056380272,-0.002786156488582492,-0.0008973610238172114
1695200963482378500,7.18437841796875,0.023271523416042328,-0.014392596669495106,0.00337869580835104
1695200963492377300,7.19437744140625,0.020828062668442726,-0.015614326111972332,0.005822156555950642
1695200963502376200,7.204376220703125,0.02021719515323639,-0.00889480859041214,0.008265617303550243
1695200963512374800,7.214374755859375,0.018995465710759163,0.0014899004017934203,0.009487348608672619
1695200963522373600,7.22437353515625,0.016552003100514412,0.012485474348068237,0.008265617303550243
1695200963532372200,7.234372314453125,0.017773734405636787,0.02348104864358902,0.0070438869297504425
1695200963542371000,7.24437109375,0.024493252858519554,0.030811432749032974,0.004600426182150841
1695200963552369700,7.25436962890625,0.036099694669246674,0.024091914296150208,0.005822156555950642
1695200963562368500,7.264368408203125,0.04526267200708389,-0.01011653896421194,0.006433022208511829
1695200963572367400,7.274367431640625,0.04953872784972191,-0.05165537819266319,0.012541675008833408
1695200963582366000,7.284365966796875,0.050760459154844284,-0.06509441137313843,0.013152538798749447
1695200963592364800,7.29436474609375,0.04831699654459953,-0.06265094876289368,0.014374270103871822
1695200963602363600,7.30436376953125,0.041597481817007065,-0.03210768848657608,0.009487348608672619
1695200963612362200,7.3143623046875,0.034877959638834,0.009431148879230022,0.006433022208511829
1695200963622361000,7.324361083984375,0.03182363510131836,0.02348104864358902,0.005822156555950642
1695200963632360000,7.33435986328125,0.027547579258680344,0.009431148879230022,0.0070438869297504425
1695200963642358500,7.344358642578125,0.023271523416042328,-0.008283942937850952,0.013152538798749447
1695200963652357400,7.354357421875,0.020828062668442726,-0.016836058348417282,0.01620686613023281
1695200963662356000,7.36435595703125,0.023271523416042328,-0.02050124853849411,0.01620686613023281
1695200963672354800,7.374354736328125,0.01960633136332035,-0.012560000643134117,0.013152538798749447
1695200963682353400,7.384353515625,0.018384600058197975,-0.01744692213833332,0.011319943703711033
1695200963692352300,7.394352294921875,0.022049792110919952,-0.021722977980971336,0.01193080935627222
1695200963702350800,7.404350830078125,0.028158443048596382,-0.025388170033693314,0.011319943703711033
1695200963712349700,7.414349609375,0.034877959638834,-0.022944709286093712,0.007654752116650343
1695200963722348300,7.424348388671875,0.0397648848593235,-0.02905336208641529,0.005822156555950642
1695200963732347100,7.43434716796875,0.042208343744277954,-0.039438072592020035,0.007654752116650343
1695200963742345700,7.444345703125,0.042208343744277954,-0.030275093391537666,0.004600426182150841
1695200963752344600,7.454344482421875,0.04404094070196152,-0.010727404616773129,0.0021569652017205954
1695200963762343200,7.46434326171875,0.04648440331220627,-0.002175291068851948,0.00032436943729408085
1695200963772342000,7.474342041015625,0.04037574678659439,-0.05043364688754082,0.006433022208511829
1695200963782340900,7.4843408203125,0.029991040006279945,-0.08219864219427109,0.008876482956111431
1695200963792339500,7.49433935546875,0.023271523416042328,-0.06570527702569962,0.007654752116650343
1695200963802338300,7.50433837890625,0.01960633136332035,-0.039438072592020035,-0.0015082262689247727
1695200963812337000,7.5143369140625,0.016552003100514412,-0.008283942937850952,-0.006395148113369942
1695200963822335700,7.524335693359375,0.01533027458935976,0.01798326149582863,-0.010671204887330532
1695200963832334300,7.534334228515625,0.014719408936798573,0.033254895359277725,-0.014336396008729935
1695200963842333200,7.544333251953125,0.01716287061572075,0.03814181685447693,-0.018001588061451912
1695200963852332000,7.55433203125,0.014719408936798573,0.025313643738627434,-0.01555812731385231
1695200963862330600,7.56433056640625,0.009832487441599369,-0.0046187518164515495,-0.013725531287491322
1695200963872329500,7.57432958984375,0.010443353094160557,-0.010727404616773129,-0.008838609792292118
1695200963882328300,7.584328369140625,0.012886812910437584,-0.013170866295695305,-0.007616878487169743
1695200963892327000,7.594326904296875,0.014108543284237385,-0.013781731016933918,-0.005784283392131329
1695200963902325800,7.60432568359375,0.011665082536637783,-0.02966422587633133,-0.007616878487169743
1695200963912324400,7.614324462890625,0.00738902622833848,-0.03760547563433647,-0.011892936192452908
1695200963922323200,7.6243232421875,0.0012803735444322228,-0.025388170033693314,-0.013725531287491322
1695200963932322000,7.634322021484375,-0.0005522221908904612,-0.01744692213833332,-0.018001588061451912
1695200963942320600,7.644320556640625,-0.0060500092804431915,-0.013781731016933918,-0.02166677825152874
1695200963952319500,7.654319580078125,-0.012769527733325958,-0.00889480859041214,-0.0186124537140131
1695200963962318300,7.664318359375,-0.02071077562868595,-0.014392596669495106,-0.014336396008729935
1695200963972317000,7.67431689453125,-0.030484618619084358,-0.030275093391537666,-0.0008973610238172114
1695200963982315800,7.684315673828125,-0.04514538496732712,-0.02966422587633133,0.001546099898405373
1695200963992314600,7.694314697265625,-0.060417015105485916,0.0002681698533706367,0.001546099898405373
1695200964002313200,7.704313232421875,-0.071412593126297,0.016761532053351402,-0.0015082262689247727
1695200964012312000,7.71431201171875,-0.08362989872694016,0.02287018485367298,0.00032436943729408085
1695200964022310700,7.724310546875,-0.0964580699801445,0.025313643738627434,0.004600426182150841
1695200964032309500,7.7343095703125,-0.1068427711725235,0.025313643738627434,0.002767830388620496
1695200964042308400,7.744308349609375,-0.11356229335069656,0.03814181685447693,0.00398956099525094
1695200964052307200,7.75430712890625,-0.11844921112060547,0.0650198832154274,0.005822156555950642
1695200964062306300,7.764306396484375,-0.11722748726606369,0.10106093436479568,0.004600426182150841
1695200964072305200,7.77430517578125,-0.08057557046413422,0.15359535813331604,-0.003340821946039796
1695200964082304000,7.784303955078125,-0.037204135209321976,0.11205650866031647,-0.00395168736577034
1695200964092303000,7.79430322265625,0.009832487441599369,-0.0003426954208407551,0.006433022208511829
1695200964102302000,7.804302001953125,0.047706130892038345,-0.13595476746559143,0.02536984533071518
1695200964112301000,7.814301025390625,0.07397333532571793,-0.2281954288482666,0.035143688321113586
1695200964122300200,7.824300048828125,0.08985583484172821,-0.22636283934116364,0.032700225710868835
1695200964132299300,7.83429931640625,0.10207313299179077,-0.17443928122520447,0.0192611925303936
1695200964142298400,7.84429833984375,0.10451660305261612,-0.1267918050289154,0.008265617303550243
1695200964152297500,7.85429736328125,0.09168843179941177,-0.0919724777340889,0.001546099898405373
1695200964162296300,7.86429638671875,0.07458420842885971,-0.05776402726769447,-0.005173417739570141
1695200964172295400,7.87429541015625,0.05564738065004349,-0.030885957181453705,-0.005173417739570141
1695200964182294500,7.88429443359375,0.04404094070196152,-0.044935859739780426,-0.0027299567591398954
1695200964192293600,7.894293701171875,0.01716287061572075,-0.040048934519290924,-0.0008973610238172114
1695200964202292700,7.904292724609375,-0.013991258107125759,0.002100765472277999,-0.0027299567591398954
1695200964212291600,7.91429150390625,-0.040258463472127914,0.06929594278335571,-0.010060340166091919
1695200964222290700,7.924290771484375,-0.054308366030454636,0.1401563137769699,-0.0210559144616127
1695200964232289800,7.934289794921875,-0.05369749665260315,0.17741909623146057,-0.02166677825152874
1695200964242289000,7.944288818359375,-0.04331279173493385,0.1407671868801117,-0.009449474513530731
1695200964252288000,7.9542880859375,-0.03231721371412277,0.04913739114999771,0.010098213329911232
1695200964262287000,7.964287109375,-0.01826731488108635,-0.05532056838274002,0.02536984533071518
1695200964272286000,7.974285888671875,0.0031129694543778896,-0.13900910317897797,0.041252341121435165
1695200964282285000,7.98428515625,0.009832487441599369,-0.1530590057373047,0.04308493807911873
1695200964292284200,7.9942841796875,0.004945565015077591,-0.12923525273799896,0.03697628527879715
1695200964302283300,8.004283203125,-0.004828278906643391,-0.05898575857281685,0.02536984533071518
1695200964312282400,8.014282470703124,-0.00727174011990428,-0.009505674242973328,0.016817731782794
1695200964322281200,8.02428125,-0.006660874933004379,-0.018668653443455696,0.015596000477671623
1695200964332280300,8.0342802734375,-0.006660874933004379,-0.054098837077617645,0.02475897967815399
1695200964342279200,8.044279052734375,-0.0060500092804431915,-0.08097690343856812,0.027202440425753593
1695200964352278300,8.0542783203125,-0.005439144093543291,-0.0815877765417099,0.029035035520792007
1695200964362277000,8.064277099609376,-0.003606548300012946,-0.0663161426782608,0.03147849813103676
1695200964372276000,8.07427587890625,-0.01093693170696497,-0.05226624384522438,0.027202440425753593
1695200964382274800,8.08427490234375,-0.016434719786047935,-0.030885957181453705,0.016817731782794
1695200964392273700,8.094273681640624,-0.013991258107125759,-0.007673078682273626,0.015596000477671623
1695200964402272300,8.104272216796875,-0.00727174011990428,-0.002175291068851948,0.01193080935627222
1695200964412271000,8.11427099609375,-0.0017739527393132448,-0.005229617469012737,0.0070438869297504425
1695200964422269700,8.124269775390625,0.005556430201977491,-0.01194913499057293,0.014985134825110435
1695200964432268500,8.1342685546875,0.015941139310598373,-0.036383744329214096,0.02231551706790924
1695200964442267100,8.14426708984375,0.028158443048596382,-0.06875960528850555,0.030256766825914383
1695200964452266000,8.154265869140625,0.03243450075387955,-0.08952902257442474,0.03636541590094566
1695200964462264600,8.1642646484375,0.026936713606119156,-0.07242479920387268,0.0345328226685524
1695200964472263400,8.174263427734376,0.02266065776348114,-0.03760547563433647,0.030256766825914383
1695200964482262300,8.18426220703125,0.021438926458358765,-0.011338270269334316,0.02231551706790924
1695200964492260900,8.1942607421875,0.013497678562998772,-0.007062213029712439,0.022926384583115578
1695200964502259700,8.204259765625,0.001891238847747445,-0.036383744329214096,0.02231551706790924
1695200964512258300,8.21425830078125,-0.0005522221908904612,-0.04188153147697449,0.0192611925303936
1695200964522257200,8.224257080078125,0.0043346998281776905,-0.027831630781292915,0.020482921972870827
1695200964532256000,8.234256103515625,0.0043346998281776905,-0.024166438728570938,0.021704653277993202
1695200964542254600,8.244254638671874,0.000058643065131036565,-0.01011653896421194,0.021093787625432014
1695200964552253400,8.25425341796875,-0.003606548300012946,0.009431148879230022,0.0192611925303936
1695200964562252000,8.264251953125,-0.005439144093543291,0.024702779948711395,0.017428595572710037
1695200964572251000,8.2742509765625,-0.0060500092804431915,0.03203316032886505,0.014985134825110435
1695200964582249700,8.284249755859374,-0.004217413254082203,0.03264402598142624,0.014374270103871822
1695200964592248300,8.294248291015625,-0.0029956831131130457,0.009431148879230022,0.009487348608672619
1695200964602247200,8.3042470703125,-0.0029956831131130457,-0.002175291068851948,0.008876482956111431
1695200964612246000,8.31424609375,-0.004828278906643391,0.005765956826508045,0.010098213329911232
1695200964622244600,8.32424462890625,-0.0017739527393132448,0.01004201453179121,0.01070907898247242
1695200964632243500,8.334243408203125,-0.0023848179262131453,0.01798326149582863,0.008876482956111431
1695200964642242300,8.3442421875,-0.0017739527393132448,0.01798326149582863,0.009487348608672619
1695200964652241000,8.354240966796874,-0.0023848179262131453,0.006987687665969133,0.014374270103871822
1695200964662239700,8.36423974609375,0.0025021040346473455,-0.00889480859041214,0.018039461225271225
1695200964672238300,8.37423828125,0.006167295388877392,-0.00889480859041214,0.016817731782794
1695200964682237200,8.3842373046875,0.010443353094160557,-0.005229617469012737,0.016817731782794
1695200964692236000,8.394236083984374,0.011054216884076595,-0.0046187518164515495,0.01620686613023281
1695200964702234600,8.404234619140626,0.012275947257876396,0.009431148879230022,0.012541675008833408
1695200964712233500,8.4142333984375,0.012275947257876396,0.0344766229391098,0.011319943703711033
1695200964722232000,8.424232177734375,0.013497678562998772,0.048526521772146225,0.01070907898247242
1695200964732231000,8.43423095703125,0.011054216884076595,0.05341344326734543,0.006433022208511829
1695200964742229800,8.444229736328126,0.012275947257876396,0.06257642060518265,-0.002119091572239995
1695200964752228400,8.454228271484375,0.011665082536637783,0.07601545751094818,-0.005173417739570141
1695200964762227200,8.464227294921875,0.0043346998281776905,0.07968065142631531,-0.006395148113369942
1695200964772226000,8.47422607421875,-0.0023848179262131453,0.05585690587759018,-0.009449474513530731
1695200964782224600,8.484224609375,-0.0011630873195827007,0.04058527573943138,-0.00822774413973093
1695200964792223200,8.49422314453125,-0.003606548300012946,0.03203316032886505,-0.010671204887330532
1695200964802222000,8.50422216796875,-0.00727174011990428,0.01798326149582863,-0.00822774413973093
1695200964812220700,8.514220703125,-0.0017739527393132448,0.011874609626829624,-0.002119091572239995
1695200964822219500,8.524219482421875,0.005556430201977491,0.0002681698533706367,0.002767830388620496
1695200964832218000,8.534218017578125,0.006778160575777292,-0.014392596669495106,0.0070438869297504425
1695200964842217000,8.544217041015624,0.005556430201977491,-0.022944709286093712,0.008265617303550243
1695200964852215600,8.554215576171876,0.012275947257876396,-0.02050124853849411,0.008876482956111431
1695200964862214400,8.56421435546875,0.018995465710759163,-0.033329419791698456,0.0070438869297504425
1695200964872213000,8.574212890625,0.017773734405636787,-0.04432499408721924,0.006433022208511829
1695200964882211800,8.5842119140625,0.018995465710759163,-0.0461575873196125,0.001546099898405373
1695200964892210700,8.594210693359376,0.02266065776348114,-0.036383744329214096,0.00032436943729408085
1695200964902209300,8.604209228515625,0.024493252858519554,-0.027831630781292915,0.00032436943729408085
1695200964912208100,8.6142080078125,0.022049792110919952,-0.012560000643134117,-0.002119091572239995
1695200964922206700,8.624206787109374,0.023882387205958366,0.006987687665969133,-0.00395168736577034
1695200964932205600,8.63420556640625,0.028158443048596382,0.01004201453179121,-0.0015082262689247727
1695200964942204200,8.6442041015625,0.03426709771156311,-0.00889480859041214,0.00398956099525094
1695200964952203000,8.654203125,0.03732142224907875,-0.019890382885932922,0.007654752116650343
1695200964962201900,8.664201904296876,0.039154019206762314,-0.016836058348417282,0.007654752116650343
1695200964972200400,8.674200439453125,0.04037574678659439,-0.01011653896421194,0.007654752116650343
1695200964982199300,8.68419921875,0.042208343744277954,0.0014899004017934203,0.006433022208511829
1695200964992198100,8.6941982421875,0.041597481817007065,0.02287018485367298,0.00398956099525094
1695200965002196700,8.70419677734375,0.04281920939683914,0.033865757286548615,0.002767830388620496
1695200965012195600,8.714195556640625,0.047095268964767456,0.027757106348872185,0.005211291369050741
1695200965022194400,8.7241943359375,0.04892786592245102,0.012485474348068237,0.006433022208511829
1695200965032193000,8.734193115234374,0.04953872784972191,-0.012560000643134117,0.00337869580835104
1695200965042192000,8.74419189453125,0.05320391803979874,-0.0412706695497036,0.005822156555950642
1695200965052190500,8.7541904296875,0.05564738065004349,-0.05348797142505646,0.008265617303550243
1695200965062189300,8.764189208984375,0.06175602972507477,-0.044935859739780426,0.002767830388620496
1695200965072188000,8.77418798828125,0.06114516779780388,-0.040048934519290924,0.001546099898405373
1695200965082186800,8.784186767578126,0.0599234364926815,-0.021722977980971336,0.00032436943729408085
1695200965092185600,8.794185546875,0.0654212236404419,-0.004007887095212936,-0.003340821946039796
1695200965102184400,8.804184326171875,0.07152988016605377,-0.01805778779089451,-0.002119091572239995
1695200965112183000,8.81418310546875,0.07702766358852386,-0.048601049929857254,0.00337869580835104
1695200965122182000,8.824181884765625,0.08069285750389099,-0.06265094876289368,0.005211291369050741
1695200965132180700,8.8341806640625,0.09168843179941177,-0.06570527702569962,0.004600426182150841
1695200965142179600,8.8441796875,0.10085140913724899,-0.08403123170137405,0.00398956099525094
1695200965152178400,8.854178466796874,0.1057383269071579,-0.09624853730201721,0.005822156555950642
1695200965162177300,8.86417724609375,0.10268400609493256,-0.09869199991226196,0.01193080935627222
1695200965172176100,8.874176025390625,0.09840794652700424,-0.09808113425970078,0.01193080935627222
1695200965182175000,8.884175048828125,0.09352102875709534,-0.08891815692186356,0.014374270103871822
1695200965192173800,8.894173828125,0.08802323788404465,-0.07486825436353683,0.014985134825110435
1695200965202172700,8.904172607421875,0.0800819918513298,-0.0663161426782608,0.018039461225271225
1695200965212171500,8.914171630859375,0.07702766358852386,-0.06814873218536377,0.016817731782794
1695200965222170400,8.92417041015625,0.07763852924108505,-0.06387268006801605,0.015596000477671623
1695200965232169200,8.934169189453126,0.07702766358852386,-0.06387268006801605,0.014374270103871822
1695200965242168000,8.94416796875,0.07641679793596268,-0.060207489877939224,0.01620686613023281
1695200965252167000,8.9541669921875,0.07397333532571793,-0.04432499408721924,0.015596000477671623
1695200965551997000,9.253996826171875,0.02021719515323639,-0.20559340715408325,0.0345328226685524
1695200965561995000,9.2639951171875,0.01960633136332035,-0.2746211886405945,0.04003060981631279
1695200965571992800,9.273992919921875,0.020828062668442726,-0.40656808018684387,0.06018916144967079
1695200965581991700,9.28399169921875,0.017773734405636787,-0.5269085168838501,0.07607166469097137
1695200965591990000,9.293989990234374,0.0012803735444322228,-0.5311845541000366,0.0797368511557579
1695200965601988900,9.30398876953125,-0.024986831471323967,-0.40229201316833496,0.05530224367976189
1695200965611987500,9.313987548828125,-0.04331279173493385,-0.20559340715408325,0.020482921972870827
1695200965621986000,9.323986083984375,-0.04819970950484276,-0.07059220224618912,-0.00395168736577034
1695200965631985000,9.33398486328125,-0.04331279173493385,-0.033940285444259644,-0.012503799982368946
1695200965641983500,9.3439833984375,-0.04758884385228157,-0.06387268006801605,-0.003340821946039796
1695200965651982000,9.353982177734375,-0.06469307094812393,-0.1121310368180275,0.01070907898247242
1695200965661981000,9.36398095703125,-0.08057557046413422,-0.1426742970943451,-0.002119091572239995
1695200965671979500,9.3739794921875,-0.07507777959108353,-0.1426742970943451,-0.007616878487169743
1695200965681978000,9.38397802734375,-0.06957999616861343,-0.16649805009365082,-0.011892936192452908
1695200965691977000,9.39397705078125,-0.08851681649684906,-0.107244111597538,-0.03021889366209507
1695200965701975600,9.4039755859375,-0.12944479286670685,0.06563074886798859,-0.06198388710618019
1695200965711974400,9.413974365234376,-0.1416620910167694,0.2415599375963211,-0.09497061371803284
1695200965721973000,9.423972900390625,-0.10806450992822647,0.25988590717315674,-0.11329656839370728
1695200965731971600,9.4339716796875,-0.06530393660068512,0.11205650866031647,-0.09924666583538055
1695200965741970400,9.443970458984374,-0.04392365738749504,-0.07608998566865921,-0.05831869691610336
1695200965751969000,9.453968994140626,-0.02681942656636238,-0.27156686782836914,-0.032051488757133484
1695200965761967900,9.4639677734375,-0.00727174011990428,-0.37724655866622925,-0.0002864958078134805
1695200965771966500,9.473966552734375,-0.006660874933004379,-0.3137165606021881,-0.0186124537140131
1695200965781965300,9.48396533203125,-0.0011630873195827007,-0.2135346680879593,-0.03510581701993942
1695200965791964000,9.4939638671875,0.001891238847747445,-0.1530590057373047,-0.052210040390491486
1695200965801962500,9.50396240234375,-0.0005522221908904612,-0.08891815692186356,-0.06503821164369583
1695200965811961300,9.51396142578125,0.00738902622833848,-0.08097690343856812,-0.07053599506616592
1695200965821960000,9.5239599609375,0.023271523416042328,-0.1530590057373047,-0.06015129014849663
1695200971096647200,14.798647216796875,0.04037574678659439,-0.1219048798084259,0.01987205632030964
1695200971106647000,14.80864697265625,0.03182363510131836,-0.06081835553050041,0.013763404451310635
1695200971116646100,14.818646240234376,0.026936713606119156,-0.008283942937850952,0.002767830388620496
1695200971126644700,14.828644775390625,0.026325849816203117,0.04119614139199257,0.00032436943729408085
1695200971136643300,14.838643310546875,0.025104118511080742,0.04608306661248207,-0.0002864958078134805
1695200971146642200,14.84864208984375,0.025104118511080742,0.016761532053351402,0.004600426182150841
1695200971156640800,14.858640869140626,0.034877959638834,-0.08586382865905762,0.02475897967815399
1695200971166639600,14.8686396484375,0.041597481817007065,-0.14084170758724213,0.027202440425753593
1695200971176638500,14.878638427734375,0.04648440331220627,-0.15855678915977478,0.027813304215669632
1695200971186637300,14.88863720703125,0.050149593502283096,-0.15611332654953003,0.029035035520792007
1695200971196636200,14.89863623046875,0.04892786592245102,-0.1377873718738556,0.02475897967815399
1695200971206634800,14.908634765625,0.038543153554201126,-0.09013988822698593,0.017428595572710037
1695200971216633600,14.918633544921875,0.029380174353718758,-0.013781731016933918,0.008876482956111431
1695200971226632400,14.928632568359374,0.026325849816203117,0.05035911872982979,0.0009352346532978117
1695200971236631000,14.938631103515625,0.029380174353718758,0.04608306661248207,0.0021569652017205954
1695200971246630000,14.9486298828125,0.03182363510131836,0.003933361265808344,0.01193080935627222
1695200971256628700,14.958628662109374,0.03121277131140232,-0.07425739616155624,0.02231551706790924
1695200971266627300,14.96862744140625,0.036099694669246674,-0.12068314850330353,0.03147849813103676
1695200971276626200,14.978626220703125,0.039154019206762314,-0.1316787302494049,0.03331109136343002
1695200971286625000,14.988625,0.03548882529139519,-0.08830729126930237,0.02842417173087597
1695200971296623600,14.99862353515625,0.02876931056380272,-0.0412706695497036,0.03086763247847557
1695200971306622500,15.00862255859375,0.02266065776348114,-0.036383744329214096,0.032089363783597946
1695200971316621000,15.01862109375,0.009221621789038181,-0.019890382885932922,0.03636541590094566
1695200971326620000,15.028619873046875,-0.004217413254082203,0.016761532053351402,0.032700225710868835
1695200971336618500,15.038618408203124,-0.006660874933004379,0.045472197234630585,0.029645901173353195
1695200971346617300,15.048617431640626,-0.0011630873195827007,0.04669392853975296,0.03697628527879715
1695200971356616200,15.0586162109375,0.0012803735444322228,0.02348104864358902,0.03086763247847557
1695200971366614800,15.06861474609375,0.001891238847747445,-0.03760547563433647,0.03697628527879715
1695200971376613600,15.078613525390624,0.0037238344084471464,-0.10235719382762909,0.05163704976439476
1695200971386612200,15.0886123046875,0.010443353094160557,-0.10296805202960968,0.05530224367976189
1695200971396611000,15.098611083984375,0.012275947257876396,-0.07547912001609802,0.05224791541695595
1695200971406609700,15.108609619140625,0.011054216884076595,-0.05287710577249527,0.05346964672207832
1695200971416608500,15.1186083984375,0.006167295388877392,-0.016836058348417282,0.05163704976439476
1695200971426607400,15.128607421875,0.006167295388877392,0.039974410086870193,0.04552839696407318
1695200971436606200,15.138606201171875,0.00799989141523838,0.06440901756286621,0.049804456532001495
1695200971446604800,15.148604736328124,0.015941139310598373,0.02348104864358902,0.06629781424999237
1695200971456603600,15.158603759765626,0.011665082536637783,-0.05898575857281685,0.07790426164865494
1695200971466602500,15.1686025390625,0.011665082536637783,-0.08708555996417999,0.08340204507112503
1695200971476601000,15.17860107421875,0.015941139310598373,-0.10052459686994553,0.08767809718847275
1695200971486600000,15.188599853515624,0.018995465710759163,-0.0767008513212204,0.08584550768136978
1695200971496598500,15.1985986328125,0.01533027458935976,-0.01744692213833332,0.0797368511557579
1695200971506597400,15.208597412109375,0.012275947257876396,0.04119614139199257,0.07668252289295197
1695200971516596000,15.218595947265625,0.006778160575777292,0.050969984382390976,0.08279117941856384
1695200971526594800,15.2285947265625,0.0025021040346473455,0.03814181685447693,0.08340204507112503
1695200971536593700,15.23859375,0.005556430201977491,0.039363544434309006,0.08401291072368622
1695200971546592300,15.24859228515625,0.013497678562998772,0.030811432749032974,0.08218031376600266
1695200971556591000,15.258591064453125,0.028158443048596382,-0.008283942937850952,0.08828896284103394
1695200971566590000,15.26858984375,0.034877959638834,-0.024777306243777275,0.09134329110383987
1695200971576588500,15.278588623046875,0.039154019206762314,-0.019279517233371735,0.095008485019207
1695200971586587400,15.28858740234375,0.04831699654459953,-0.013170866295695305,0.095008485019207
1695200971596586200,15.298586181640625,0.0550365149974823,-0.016225190833210945,0.10356058925390244
1695200971606584800,15.308584716796876,0.05686911195516586,-0.01805778779089451,0.11150184273719788
1695200971616583700,15.318583740234375,0.05747997760772705,-0.015614326111972332,0.11761049926280975
1695200971626582300,15.328582275390625,0.06297776103019714,-0.00889480859041214,0.11944308876991272
1695200971636581000,15.3385810546875,0.06786468625068665,-0.0003426954208407551,0.11761049926280975
1695200971646580000,15.348580078125,0.0648103579878807,0.005765956826508045,0.11211270838975906
1695200971656578600,15.35857861328125,0.06114516779780388,0.0002681698533706367,0.11883223056793213
1695200971666577400,15.368577392578125,0.0654212236404419,-0.0003426954208407551,0.12860606610774994
1695200971676576300,15.378576171875,0.06725382059812546,-0.012560000643134117,0.13837991654872894
1695200971686575400,15.388575439453126,0.0654212236404419,-0.02050124853849411,0.14754289388656616
1695200971696574200,15.39857421875,0.05259305611252785,-0.013781731016933918,0.14815376698970795
1695200971706573300,15.4085732421875,0.03182363510131836,0.02592451125383377,0.13471472263336182
1695200971716572200,15.418572265625,0.014719408936798573,0.11694342643022537,0.11272357404232025
1695200971726571300,15.4285712890625,0.013497678562998772,0.19879937171936035,0.09195415675640106
1695200971736570000,15.438570068359375,0.020828062668442726,0.19696678221225739,0.0901215597987175
1695200971746569200,15.4485693359375,0.03548882529139519,0.12671728432178497,0.09623020887374878
1695200971756568300,15.458568359375,0.05137132108211517,0.024091914296150208,0.11150184273719788
1695200971766567400,15.4685673828125,0.05747997760772705,0.01004201453179121,0.12005395442247391
1695200971776566300,15.478566162109376,0.06969728320837021,0.014928936026990414,0.11577790230512619
1695200971786565400,15.4885654296875,0.08802323788404465,0.013096340000629425,0.11577790230512619
1695200971796564500,15.498564453125,0.10390572994947433,-0.02966422587633133,0.11944308876991272
1695200971806563600,15.5085634765625,0.10390572994947433,-0.09013988822698593,0.115167036652565
1695200971816562700,15.518562744140626,0.09352102875709534,-0.11885055899620056,0.10172799974679947
1695200971826561500,15.5285615234375,0.08435804396867752,-0.10418979078531265,0.0797368511557579
1695200971836560600,15.538560546875,0.07397333532571793,-0.059596624225378036,0.058967433869838715
1695200971846559700,15.548559814453125,0.062366899102926254,0.01004201453179121,0.03331109136343002
1695200971856558800,15.558558837890626,0.06664295494556427,0.08395671099424362,-0.0002864958078134805
1695200971866558000,15.568557861328125,0.07702766358852386,0.0747937336564064,-0.010060340166091919
1695200971876556800,15.578556884765625,0.08741237968206406,0.02042672410607338,-0.014336396008729935
1695200971886556000,15.588555908203125,0.0904667004942894,-0.04676845669746399,-0.017390722408890724
1695200971896555000,15.598554931640624,0.0904667004942894,-0.0767008513212204,-0.019834183156490326
1695200971906554000,15.60855419921875,0.09291016310453415,-0.04982278123497963,-0.03266235440969467
1695200971916553200,15.61855322265625,0.09901881217956543,-0.011338270269334316,-0.0412144660949707
1695200971926552000,15.628552001953125,0.10634920001029968,0.011263743974268436,-0.05037744343280792
1695200971936551200,15.63855126953125,0.1106252521276474,0.03692008554935455,-0.055264364928007126
1695200971946550300,15.64855029296875,0.11001438647508621,0.05035911872982979,-0.06259474903345108
1695200971956549400,15.65854931640625,0.1106252521276474,0.036309219896793365,-0.07725551724433899
1695200971966548500,15.668548583984375,0.121009960770607,-0.005229617469012737,-0.07542292028665543
1695200971976547300,15.67854736328125,0.1356707364320755,-0.06509441137313843,-0.07236859202384949
1695200971986546200,15.688546142578126,0.14910975098609924,-0.1121310368180275,-0.06809253990650177
1695200971996545000,15.698544921875,0.16010533273220062,-0.12923525273799896,-0.06748167425394058
1695200972006544000,15.7085439453125,0.16560311615467072,-0.11029843986034393,-0.07603378593921661
1695200972016542700,15.718542724609375,0.16743572056293488,-0.07547912001609802,-0.0870293602347374
1695200972026541300,15.728541259765626,0.16987918317317963,-0.033329419791698456,-0.09802493453025818
1695200972036540200,15.7385400390625,0.17415525019168854,0.011263743974268436,-0.10291185975074768
1695200972046539000,15.7485390625,0.1863725483417511,0.01737239584326744,-0.09802493453025818
1695200972056537600,15.75853759765625,0.20897457003593445,-0.05165537819266319,-0.07908811420202255
1695200972066536400,15.768536376953126,0.20897457003593445,-0.10235719382762909,-0.07481205463409424
1695200972076535000,15.77853515625,0.20286589860916138,-0.08769642561674118,-0.08397503942251205
1695200972086534000,15.788533935546875,0.19981157779693604,-0.028442496433854103,-0.10779878497123718
1695200972096532500,15.798532470703124,0.20836369693279266,0.03692008554935455,-0.12612473964691162
1695200972106531300,15.80853125,0.2218027412891388,0.05830036848783493,-0.13528771698474884
1695200972116530000,15.818530029296875,0.23340916633605957,0.038752682507038116,-0.13528771698474884
1695200972126528800,15.82852880859375,0.241961270570755,0.0033224960789084435,-0.1316225230693817
1695200972136527400,15.83852734375,0.25356772541999817,-0.008283942937850952,-0.1279573291540146
1695200972146526200,15.848526123046875,0.2663958966732025,0.01004201453179121,-0.1316225230693817
1695200972156525000,15.858525146484375,0.2865544557571411,-0.01805778779089451,-0.13406598567962646
1695200972166523600,15.868523681640625,0.28411099314689636,-0.060207489877939224,-0.13528771698474884
1695200972176522500,15.8785224609375,0.27494800090789795,-0.057153165340423584,-0.1420072317123413
1695200972186521300,15.888521240234375,0.27067193388938904,0.005765956826508045,-0.15544627606868744
1695200972196520000,15.89852001953125,0.2767806053161621,0.10900218039751053,-0.1731613576412201
1695200972206518800,15.908518798828124,0.29449570178985596,0.17925170063972473,-0.1878221333026886
1695200972216517600,15.918517578125,0.31587597727775574,0.135880246758461,-0.18049174547195435
1695200972226516200,15.92851611328125,0.322595477104187,0.002711630892008543,-0.16399838030338287
1695200973546654000,17.248654052734373,0.07641679793596268,-0.11823968589305878,0.155484139919281
1695200973556651800,17.25865185546875,0.09718621522188187,-0.044935859739780426,0.12677347660064697
1695200973566649900,17.26864990234375,0.11795563250780106,-0.008283942937850952,0.09684108197689056
1695200973576648400,17.2786484375,0.13200554251670837,-0.011338270269334316,0.07423906773328781
1695200973586647000,17.28864697265625,0.13689245283603668,-0.054098837077617645,0.07179559767246246
1695200973596645400,17.298645263671876,0.13689245283603668,-0.08708555996417999,0.06690868735313416
1695200973606644200,17.308644287109374,0.12834034860134125,-0.03577288240194321,0.0546913743019104
1695200973616642600,17.318642578125,0.11367958039045334,0.039974410086870193,0.052858781069517136
1695200973626641200,17.32864111328125,0.08435804396867752,0.08823276311159134,0.04797185957431793
1695200973636639700,17.3386396484375,0.06725382059812546,0.12671728432178497,0.04491753503680229
1695200973646638300,17.348638427734375,0.05870170518755913,0.15726053714752197,0.04858272522687912
1695200973656637200,17.35863720703125,0.056258246302604675,0.11205650866031647,0.05835656821727753
1695200973666635800,17.3686357421875,0.04648440331220627,0.027757106348872185,0.07423906773328781
1695200973676634400,17.37863427734375,0.026325849816203117,-0.030275093391537666,0.0901215597987175
1695200973686633200,17.38863330078125,0.0037238344084471464,-0.03882720693945885,0.09684108197689056
1695200973696631800,17.3986318359375,-0.014602122828364372,0.04425046965479851,0.09134329110383987
1695200973706630400,17.40863037109375,-0.02376510202884674,0.18230602145195007,0.07240647077560425
1695200973716629200,17.418629150390625,-0.019489044323563576,0.2708814740180969,0.052858781069517136
1695200973726627800,17.4286279296875,0.000058643065131036565,0.2067406177520752,0.055913105607032776
1695200973736626400,17.43862646484375,0.011054216884076595,0.09128709137439728,0.07668252289295197
1695200973746625300,17.448625244140626,0.021438926458358765,-0.05470970273017883,0.10172799974679947
1695200973756624000,17.458623779296875,0.02876931056380272,-0.15672419965267181,0.11272357404232025
1695200973766622500,17.46862255859375,0.03182363510131836,-0.14389602839946747,0.10294973105192184
1695200973776621300,17.478621337890626,0.03243450075387955,-0.05348797142505646,0.08218031376600266
1695200973786620200,17.4886201171875,0.030601905658841133,0.04180700704455376,0.06446521729230881
1695200973796619000,17.498618896484373,0.03182363510131836,0.10106093436479568,0.047360993921756744
1695200973806617900,17.508617919921875,0.034877959638834,0.12427381426095963,0.04186320677399635
1695200973816616700,17.51861669921875,0.04037574678659439,0.08273497968912125,0.047360993921756744
1695200973826615800,17.52861572265625,0.04343007504940033,0.039363544434309006,0.05102618411183357
1695200973836614700,17.53861474609375,0.04953872784972191,0.011263743974268436,0.055913105607032776
1695200973846613800,17.54861376953125,0.050760459154844284,-0.002175291068851948,0.058967433869838715
1695200973856612900,17.55861279296875,0.04892786592245102,0.0014899004017934203,0.05774570256471634
1695200973866612000,17.568612060546876,0.04526267200708389,0.013096340000629425,0.05346964672207832
1695200973876610800,17.57861083984375,0.04343007504940033,-0.002786156488582492,0.047360993921756744
1695200973886610000,17.58860986328125,0.03548882529139519,-0.03516201302409172,0.05041532218456268
1695200973896609000,17.598609130859376,0.027547579258680344,-0.03455114737153053,0.05102618411183357
1695200973906608000,17.608608154296874,0.02571498230099678,-0.0046187518164515495,0.04308493807911873
1695200973916607200,17.618607177734376,0.03365623205900192,0.002711630892008543,0.04308493807911873
1695200973926606000,17.628606201171873,0.034877959638834,0.0014899004017934203,0.04247407242655754
1695200973936605200,17.638605224609375,0.03548882529139519,0.014318070374429226,0.044306665658950806
1695200973946604300,17.648604248046876,0.04098661243915558,-0.009505674242973328,0.049804456532001495
1695200973956603400,17.658603271484374,0.0397648848593235,-0.06692700833082199,0.06141089275479317
1695200973966602500,17.6686025390625,0.029991040006279945,-0.0767008513212204,0.06568694859743118
1695200973976601300,17.678601318359377,0.027547579258680344,-0.06509441137313843,0.05774570256471634
1695200973986600400,17.688600341796874,0.034877959638834,-0.07364652305841446,0.062021758407354355
1695200973996599600,17.698599609375,0.03732142224907875,-0.09563767164945602,0.06507609039545059
1695200974006598700,17.7085986328125,0.030601905658841133,-0.10113546252250671,0.06629781424999237
1695200974016597500,17.718597412109375,0.026936713606119156,-0.11396363377571106,0.07179559767246246
1695200974026596600,17.7285966796875,0.02571498230099678,-0.11457449197769165,0.06813041120767593
1695200974036595700,17.738595703125,0.024493252858519554,-0.11335276812314987,0.06385435163974762
1695200974046594800,17.7485947265625,0.018384600058197975,-0.10052459686994553,0.059578295797109604
1695200974056594000,17.758593994140625,0.006778160575777292,-0.06570527702569962,0.047360993921756744
1695200974066592800,17.7685927734375,-0.0023848179262131453,-0.00889480859041214,0.02842417173087597
1695200974076591900,17.778591796875,-0.005439144093543291,0.060132965445518494,0.0192611925303936
1695200974086591000,17.788591064453126,-0.00727174011990428,0.08578930795192719,0.018039461225271225
1695200974096589800,17.79858984375,-0.004828278906643391,0.04913739114999771,0.027202440425753593
1695200974106588700,17.808588623046877,-0.0023848179262131453,-0.0046187518164515495,0.04064147546887398
1695200974116587500,17.81858740234375,0.0012803735444322228,-0.07059220224618912,0.047360993921756744
1695200974126586000,17.828586181640624,0.001891238847747445,-0.06326181441545486,0.04919358715415001
1695200974136585000,17.8385849609375,0.006167295388877392,-0.033940285444259644,0.047360993921756744
1695200974146583800,17.848583740234375,0.010443353094160557,-0.013170866295695305,0.04675012826919556
1695200974156582400,17.85858251953125,0.010443353094160557,-0.0033970214426517487,0.04675012826919556
1695200974166581200,17.868581298828126,0.0025021040346473455,0.010652878321707249,0.04613926261663437
1695200974176579800,17.878579833984375,-0.0029956831131130457,0.005155091639608145,0.04675012826919556
1695200974186578700,17.88857861328125,-0.0011630873195827007,0.014318070374429226,0.04675012826919556
1695200974196577300,17.898577392578126,0.004945565015077591,0.05585690587759018,0.0394197478890419
1695200974206576000,17.908576171875,0.013497678562998772,0.06135469302535057,0.04003060981631279
1695200974216574700,17.91857470703125,0.014719408936798573,0.000879035098478198,0.05163704976439476
1695200974226573600,17.928573486328126,0.006167295388877392,-0.02050124853849411,0.0546913743019104
1695200974236572200,17.938572265625,-0.003606548300012946,-0.006451347842812538,0.05713483691215515
1695200974246570800,17.94857080078125,-0.010326066054403782,0.030811432749032974,0.05530224367976189
1695200974256569600,17.958569580078127,-0.010326066054403782,0.05891123041510582,0.05041532218456268
1695200974266568400,17.968568359375,-0.008493470028042793,0.06196556240320206,0.04675012826919556
1695200974276567300,17.9785673828125,-0.013380392454564571,0.056467775255441666,0.05102618411183357
1695200974286566000,17.98856591796875,-0.01826731488108635,0.039974410086870193,0.056523971259593964
1695200974296564700,17.998564697265625,-0.015823854133486748,0.0344766229391098,0.05530224367976189
1695200974306563600,18.0085634765625,-0.00788260530680418,0.043028734624385834,0.05530224367976189
1695200974316562200,18.018562255859376,0.006167295388877392,0.04669392853975296,0.05163704976439476
1695200974326561000,18.02856103515625,0.011054216884076595,0.018594127148389816,0.056523971259593964
1695200974336559600,18.0385595703125,0.01716287061572075,-0.036994609981775284,0.06141089275479317
1695200974346558500,18.048558349609376,0.022049792110919952,-0.06692700833082199,0.06690868735313416
1695200974356557000,18.05855712890625,0.023882387205958366,-0.07792258262634277,0.06813041120767593
1695200974366556000,18.068555908203123,0.024493252858519554,-0.07364652305841446,0.06690868735313416
1695200974376554800,18.0785546875,0.02266065776348114,-0.05287710577249527,0.06446521729230881
1695200974386553300,18.08855322265625,0.017773734405636787,-0.02660990133881569,0.06141089275479317
1695200974396552200,18.09855224609375,0.012886812910437584,-0.016836058348417282,0.06018916144967079
1695200974406551000,18.108551025390625,0.012275947257876396,-0.015003460459411144,0.06141089275479317
1695200974416549600,18.118549560546874,0.017773734405636787,-0.016836058348417282,0.06018916144967079
1695200974426548500,18.128548583984376,0.024493252858519554,-0.011338270269334316,0.06263262778520584
1695200974436547300,18.13854736328125,0.023271523416042328,-0.006451347842812538,0.058967433869838715
1695200974446546200,18.148546142578127,0.016552003100514412,-0.002786156488582492,0.055913105607032776
1695200974456544800,18.158544677734376,0.006778160575777292,-0.002175291068851948,0.06080003082752228
1695200974466543600,18.168543701171874,-0.0017739527393132448,-0.002786156488582492,0.062021758407354355
1695200974476542200,18.178542236328123,-0.004828278906643391,0.012485474348068237,0.06324348598718643
1695200974486541000,18.188541015625,-0.012769527733325958,0.039974410086870193,0.06080003082752228
1695200974496539600,18.19853955078125,-0.02437596768140793,0.06685248017311096,0.058967433869838715
1695200974506538500,18.20853857421875,-0.02376510202884674,0.0900653600692749,0.056523971259593964
1695200974516537300,18.218537353515625,-0.013991258107125759,0.07662633061408997,0.06507609039545059
1695200974526536200,18.2285361328125,-0.013991258107125759,0.025313643738627434,0.074849933385849
1695200974536534800,18.23853466796875,-0.015823854133486748,0.002100765472277999,0.0852346420288086
1695200974546533600,18.24853369140625,-0.014602122828364372,0.0002681698533706367,0.08889983594417572
1695200974556532200,18.2585322265625,-0.0060500092804431915,0.002100765472277999,0.08828896284103394
1695200974566531000,18.268531005859376,0.0025021040346473455,0.003933361265808344,0.08706723898649216
1695200974576529700,18.27852978515625,0.0031129694543778896,0.0014899004017934203,0.07912598550319672
1695200974586528500,18.288528564453124,-0.0029956831131130457,-0.005229617469012737,0.06935214251279831
1695200974596527000,18.298527099609377,-0.01215866208076477,-0.016836058348417282,0.06507609039545059
1695200974606526000,18.30852587890625,-0.017045583575963974,0.002711630892008543,0.06324348598718643
1695200974616524500,18.318524658203124,-0.011547796428203583,0.057078637182712555,0.04797185957431793
1695200974626523400,18.3285234375,-0.00788260530680418,0.060132965445518494,0.044306665658950806
1695200974636522000,18.33852197265625,-0.0017739527393132448,0.039363544434309006,0.052858781069517136
1695200974646520800,18.348520751953124,0.0043346998281776905,-0.011338270269334316,0.06324348598718643
1695200974656519400,18.35851953125,0.015941139310598373,-0.059596624225378036,0.06935214251279831
1695200974666518300,18.368518310546875,0.027547579258680344,-0.117017962038517,0.06935214251279831
1695200974676517000,18.37851708984375,0.030601905658841133,-0.15916766226291656,0.07179559767246246
1695200974686515700,18.388515625,0.026936713606119156,-0.1628328561782837,0.07057387381792068
1695200974696514600,18.3985146484375,0.026936713606119156,-0.13412217795848846,0.06446521729230881
1695200974706513200,18.40851318359375,0.028158443048596382,-0.08952902257442474,0.06080003082752228
1695200974716512000,18.418511962890626,0.03365623205900192,-0.05532056838274002,0.05530224367976189
1695200974726510800,18.4285107421875,0.03548882529139519,-0.07975517958402634,0.06080003082752228
1695200974736509400,18.438509521484374,0.03732142224907875,-0.12129401415586472,0.07057387381792068
1695200974746508300,18.44850830078125,0.03243450075387955,-0.1518372744321823,0.08034771680831909
1695200974756507100,18.458507080078125,0.033045366406440735,-0.16100026667118073,0.08340204507112503
1695200974766505700,18.468505615234374,0.03182363510131836,-0.15977852046489716,0.08156944811344147
1695200974776504600,18.478504638671875,0.025104118511080742,-0.15061554312705994,0.07912598550319672
1695200974786503400,18.48850341796875,0.008610757067799568,-0.1322895884513855,0.07423906773328781
1695200974796502000,18.498501953125,-0.005439144093543291,-0.10602238774299622,0.07057387381792068
1695200974806500900,18.5085009765625,-0.008493470028042793,-0.06692700833082199,0.07362819463014603
1695200974816499500,18.51849951171875,-0.008493470028042793,-0.06387268006801605,0.08584550768136978
1695200974826498300,18.528498291015627,-0.015823854133486748,-0.07547912001609802,0.09256501495838165
1695200974836497200,18.5384970703125,-0.025597697123885155,-0.07425739616155624,0.09745194017887115
1695200974846495700,18.548495849609374,-0.03353894501924515,-0.06814873218536377,0.0998954027891159
1695200974856494600,18.55849462890625,-0.04148019477725029,-0.04188153147697449,0.095008485019207
1695200974866493400,18.568493408203125,-0.049421440809965134,-0.002786156488582492,0.08095858246088028
1695200974876492000,18.578491943359374,-0.05858441814780235,0.03569835424423218,0.06751954555511475
1695200974886491000,18.588490966796876,-0.05553009361028671,0.060132965445518494,0.06141089275479317
1695200974896489700,18.59848974609375,-0.04453451931476593,0.03814181685447693,0.06507609039545059
1695200974906488800,18.60848876953125,-0.04331279173493385,-0.013781731016933918,0.07240647077560425
1695200974916487700,18.61848779296875,-0.04758884385228157,-0.040048934519290924,0.08584550768136978
1695200974926486500,18.628486572265626,-0.051864903420209885,0.010652878321707249,0.08279117941856384
1695200974936485400,18.6384853515625,-0.05675182491540909,0.105336993932724,0.07546079158782959
1695200974946484200,18.648484130859377,-0.05919528752565384,0.19818851351737976,0.07423906773328781
1695200974956483000,18.658483154296874,-0.07080172747373581,0.26416194438934326,0.07301733642816544
1695200974966482000,18.66848193359375,-0.08851681649684906,0.2977595627307892,0.07912598550319672
1695200974976480800,18.678480712890625,-0.09218201041221619,0.2910400331020355,0.08340204507112503
1695200974986479600,18.688479736328127,-0.08240816742181778,0.2708814740180969,0.09073243290185928
1695200974996478500,18.698478515625,-0.0866842195391655,0.236062154173851,0.10478232800960541
1695200975006477300,18.708477294921874,-0.13310998678207397,0.27027058601379395,0.09684108197689056
1695200975016476200,18.71847607421875,-0.18625526130199432,0.5347752571105957,0.07179559767246246
1695200975026475300,18.728475341796877,-0.15082506835460663,0.6074681878089905,0.05102618411183357
1695200975036474000,18.73847412109375,-0.11295142024755478,0.5164492726325989,0.06324348598718643
1695200975046473000,18.748472900390624,-0.10745364427566528,0.35090482234954834,0.09439761191606522
1695200975056471800,18.758471923828125,-0.12822304666042328,0.20490801334381104,0.115167036652565
1695200975066470700,18.768470703125,-0.1471598744392395,0.19574503600597382,0.11211270838975906
1695200975076469500,18.778469482421876,-0.14593815803527832,0.3331897258758545,0.07301733642816544
1695200975086468400,18.78846826171875,-0.12516872584819794,0.5048428773880005,0.02231551706790924
1695200975096467200,18.79846728515625,-0.09767979383468628,0.5598207116127014,0.005211291369050741
1695200975106466000,18.808466064453125,-0.08118642866611481,0.4229868948459625,0.007654752116650343
1695200975116465000,18.81846484375,-0.07752124220132828,0.14443236589431763,0.03819801285862923
1695200975126463500,18.82846337890625,-0.054919227957725525,0.04608306661248207,0.05041532218456268
1695200975136462600,18.838462646484373,-0.024986831471323967,0.010652878321707249,0.05713483691215515
1695200975146461400,18.84846142578125,-0.02376510202884674,0.05035911872982979,0.06080003082752228
1695200975156460300,18.858460205078124,-0.04270192235708237,0.16214746236801147,0.05346964672207832
1695200975166459100,18.868459228515626,-0.06163874641060829,0.28554224967956543,0.047360993921756744
1695200975176458000,18.8784580078125,-0.061027880758047104,0.33013540506362915,0.04308493807911873
1695200975186456600,18.88845654296875,-0.04697798192501068,0.2983704209327698,0.04552839696407318
1695200975196455400,18.898455322265626,-0.021932506933808327,0.2708814740180969,0.05102618411183357
1695200975206454000,18.9084541015625,-0.018878178671002388,0.29470524191856384,0.049804456532001495
1695200975216452900,18.918452880859373,-0.025597697123885155,0.41138049960136414,0.03819801285862923
1695200975226451500,18.928451416015626,-0.031095484271645546,0.48101910948753357,0.038808878511190414
1695200975236450300,18.9384501953125,-0.037204135209321976,0.5268340110778809,0.032089363783597946
1695200975246449000,18.948448974609374,-0.031095484271645546,0.49140384793281555,-0.00822774413973093
1695200975256447700,18.95844775390625,-0.016434719786047935,0.3771720230579376,-0.011892936192452908
1695200975266446300,18.9684462890625,-0.0017739527393132448,0.1963559091091156,0.0070438869297504425
1695200975276445200,18.978445068359374,-0.006660874933004379,0.033865757286548615,0.010098213329911232
1695200975286443800,18.98844384765625,-0.03231721371412277,-0.004007887095212936,-0.00822774413973093
1695200975296442600,18.998442626953125,-0.05553009361028671,0.12244121730327606,-0.028386296704411507
1695200975306441500,19.00844140625,-0.05369749665260315,0.2867639660835266,-0.0870293602347374
1695200975316440000,19.018440185546876,-0.00788260530680418,0.42543038725852966,-0.07725551724433899
1695200975326439000,19.02843896484375,-0.0011630873195827007,0.41015875339508057,-0.11940521746873856
1695200975336437500,19.0384375,-0.018878178671002388,0.23911648988723755,-0.0412144660949707
1695200975346436400,19.048436279296876,-0.019489044323563576,0.06440901756286621,-0.04182533174753189
1695200975356435200,19.058435302734374,-0.04453451931476593,-0.005229617469012737,-0.05770782753825188
1695200975366433800,19.068433837890623,-0.06896913051605225,0.08456757664680481,-0.06076215207576752
1695200975376432600,19.0784326171875,-0.07385604828596115,0.20307542383670807,-0.08825109153985977
1695200975386431200,19.08843115234375,-0.07263432443141937,0.28004446625709534,-0.10657704621553421
1695200975396430000,19.09843017578125,-0.07446692138910294,0.2757683992385864,-0.10657704621553421
1695200975406429000,19.108428955078125,-0.07752124220132828,0.21346014738082886,-0.10779878497123718
1695200975416427500,19.118427490234374,-0.07385604828596115,0.11999775469303131,-0.10169012099504471
1695200975426426400,19.12842626953125,-0.061027880758047104,0.08762190490961075,-0.09497061371803284
1695200975436425200,19.13842529296875,-0.05675182491540909,0.11633256822824478,-0.10474445670843124
1695200975446423800,19.148423828125,-0.06163874641060829,0.19818851351737976,-0.10963137447834015
1695200975456422700,19.158422607421876,-0.06163874641060829,0.266605406999588,-0.1218486800789833
1695200975466421200,19.168421142578126,-0.05919528752565384,0.2708814740180969,-0.11818348616361618
1695200975476420000,19.178420166015623,-0.057973556220531464,0.14504322409629822,-0.10352271795272827
1695200975486419000,19.1884189453125,-0.05675182491540909,0.0033224960789084435,-0.09802493453025818
1695200975496417500,19.19841748046875,-0.048810578882694244,-0.0461575873196125,-0.09374887496232986
1695200975506416400,19.20841650390625,-0.036593273282051086,-0.06509441137313843,-0.09985753148794174
1695200975516415000,19.2184150390625,-0.03476067632436752,0.019204992800951004,-0.1224595382809639
1695200975526413800,19.228413818359375,-0.025597697123885155,0.11511082947254181,-0.13589857518672943
1695200975536412700,19.23841259765625,-0.009715200401842594,0.13771285116672516,-0.14567242562770844
1695200975546411300,19.248411376953126,0.0037238344084471464,0.10778045654296875,-0.1426181048154831
1695200975556410000,19.25841015625,0.005556430201977491,0.0699068084359169,-0.13528771698474884
1695200975566408700,19.26840869140625,-0.0023848179262131453,0.05768950283527374,-0.13589857518672943
1695200975576407600,19.278407470703126,-0.017656449228525162,0.11144565045833588,-0.14139635860919952
1695200975586406400,19.288406494140624,-0.02376510202884674,0.20490801334381104,-0.15361367166042328
1695200975596405000,19.298405029296877,-0.022543370723724365,0.26965972781181335,-0.1731613576412201
1695200975606403800,19.30840380859375,-0.019489044323563576,0.28432050347328186,-0.1780482828617096
1695200975616402400,19.31840234375,-0.008493470028042793,0.19818851351737976,-0.1731613576412201
1695200975626401000,19.328401123046874,-0.0011630873195827007,0.13832370936870575,-0.16949616372585297
1695200975636399900,19.33839990234375,0.0037238344084471464,0.11205650866031647,-0.1621657907962799
1695200975646398700,19.348398681640624,0.006167295388877392,0.11388910561800003,-0.16522011160850525
1695200975656397300,19.358397216796874,0.012275947257876396,0.12488467991352081,-0.15483540296554565
1695200976856557300,20.558557373046874,0.11490130424499512,0.04913739114999771,0.026591574773192406
1695200976866557200,20.56855712890625,0.11612303555011749,0.09800660610198975,0.025980709120631218
1695200976876556300,20.578556396484377,0.11734477430582047,0.10228266566991806,0.04064147546887398
1695200976886555000,20.588554931640626,0.10512746125459671,0.03753094747662544,0.0546913743019104
1695200976896553700,20.5985537109375,0.0751950666308403,-0.03821633756160736,0.07362819463014603
1695200976906552300,20.60855224609375,0.06725382059812546,-0.07547912001609802,0.08279117941856384
1695200976916551200,20.61855126953125,0.06908641755580902,-0.09747026860713959,0.08645636588335037
1695200976926550000,20.628550048828124,0.06175602972507477,-0.06937047094106674,0.08767809718847275
1695200976936548600,20.638548583984374,0.04526267200708389,-0.01194913499057293,0.07668252289295197
1695200976946547500,20.64854736328125,0.033045366406440735,0.051580850034952164,0.06690868735313416
1695200976956546000,20.658546142578125,0.03426709771156311,0.10900218039751053,0.06263262778520584
1695200976966545000,20.668544921875,0.04281920939683914,0.10594785958528519,0.07118473947048187
1695200976976543500,20.67854345703125,0.04526267200708389,0.036309219896793365,0.0852346420288086
1695200976986542300,20.688542236328125,0.04281920939683914,-0.021722977980971336,0.09439761191606522
1695200976996541000,20.698541015625,0.05137132108211517,-0.06692700833082199,0.08584550768136978
1695200977006539800,20.708539794921876,0.06114516779780388,-0.06570527702569962,0.08401291072368622
1695200977016539000,20.718538818359374,0.0648103579878807,-0.04371412843465805,0.07301733642816544
1695200977026538000,20.7285380859375,0.06297776103019714,-0.02660990133881569,0.0699630081653595
1695200977036537000,20.738537109375,0.06114516779780388,-0.027220766991376877,0.06935214251279831
1695200977046536200,20.7485361328125,0.053814783692359924,-0.015003460459411144,0.07179559767246246
1695200977056535300,20.758535400390624,0.042208343744277954,0.006376822479069233,0.07301733642816544
1695200977066534400,20.768534423828125,0.03365623205900192,0.036309219896793365,0.06751954555511475
1695200977076533500,20.778533447265627,0.029991040006279945,0.04669392853975296,0.06141089275479317
1695200977086532600,20.78853271484375,0.029991040006279945,0.05280258134007454,0.05041532218456268
1695200977096531700,20.79853173828125,0.05198219045996666,0.03203316032886505,0.05224791541695595
1695200977106530800,20.80853076171875,0.06847554445266724,-0.025388170033693314,0.06935214251279831
1695200977116530000,20.818530029296873,0.06969728320837021,-0.08769642561674118,0.08279117941856384
1695200977126529000,20.828529052734375,0.06114516779780388,-0.09563767164945602,0.08706723898649216
1695200977136528100,20.838528076171876,0.05747997760772705,-0.0461575873196125,0.08034771680831909
1695200977146527200,20.84852734375,0.06114516779780388,0.006987687665969133,0.07057387381792068
1695200977156526300,20.8585263671875,0.062366899102926254,0.030200567096471786,0.06874127686023712
1695200977166525400,20.868525390625,0.05564738065004349,0.008209418505430222,0.074849933385849
1695200977176524500,20.878524658203126,0.04404094070196152,-0.024166438728570938,0.08095858246088028
1695200977186523600,20.888523681640624,0.03793228790163994,-0.0461575873196125,0.07851511985063553
1695200977196522500,20.8985224609375,0.04343007504940033,-0.044935859739780426,0.06874127686023712
1695200977206521600,20.908521484375,0.04892786592245102,-0.0461575873196125,0.07607166469097137
1695200977216520700,20.918520751953125,0.05320391803979874,-0.06326181441545486,0.07912598550319672
1695200977226519800,20.928519775390626,0.05747997760772705,-0.07608998566865921,0.08401291072368622
