time,seconds_elapsed,z,y,x
1695200956613232400,0.315232421875,-18.059999465942383,-7.980000019073486,-27.059999465942383
1695200956623230500,0.32523046875,-18.479999542236328,-7.679999828338623,-27.299999237060547
1695200956633229300,0.335229248046875,-18.299999237060547,-8.279999732971191,-26.81999969482422
1695200956643228000,0.345227783203125,-18.479999542236328,-8.460000038146973,-27.239999771118164
1695200956653226500,0.3552265625,-18.18000030517578,-9.179999351501465,-27.239999771118164
1695200956663225300,0.365225341796875,-17.81999969482422,-9.359999656677246,-27.479999542236328
1695200956673224000,0.375223876953125,-18.059999465942383,-8.819999694824219,-27.84000015258789
1695200956683222500,0.385222412109375,-18.119998931884766,-8.460000038146973,-27.719999313354492
1695200956693221400,0.395221435546875,-18.420000076293945,-8.09999942779541,-27.35999870300293
1695200956703220000,0.405219970703125,-18.479999542236328,-8.039999961853027,-27.299999237060547
1695200956713218600,0.415218505859375,-18.779998779296875,-8.34000015258789,-27.119998931884766
1695200956723217400,0.425217529296875,-18.53999900817871,-8.760000228881836,-27.18000030517578
1695200956733216000,0.435216064453125,-18.959999084472656,-8.579999923706055,-27.299999237060547
1695200956743214600,0.445214599609375,-18.84000015258789,-8.15999984741211,-27.479999542236328
1695200956753213400,0.45521337890625,-18.299999237060547,-7.859999656677246,-27.84000015258789
1695200956763212000,0.4652119140625,-18.719999313354492,-7.919999599456787,-28.260000228881836
1695200956773211000,0.4752109375,-18.420000076293945,-8.34000015258789,-28.260000228881836
1695200956783209500,0.48520947265625,-18.299999237060547,-8.819999694824219,-28.5
1695200956793208300,0.495208251953125,-18.719999313354492,-9.539999961853027,-28.079999923706055
1695200956803207000,0.50520703125,-17.8799991607666,-9.779999732971191,-28.19999885559082
1695200956813205800,0.515205810546875,-17.579999923706055,-10.019999504089355,-28.559999465942383
1695200956823204400,0.525204345703125,-17.399999618530273,-10.260000228881836,-28.619998931884766
1695200956833203000,0.535202880859375,-17.03999900817871,-9.59999942779541,-29.15999984741211
1695200956843201800,0.545201904296875,-17.15999984741211,-9.719999313354492,-29.399999618530273
1695200956853200400,0.555200439453125,-16.979999542236328,-9.539999961853027,-29.69999885559082
1695200956863199200,0.56519921875,-16.920000076293945,-9.899999618530273,-29.939998626708984
1695200956873197800,0.57519775390625,-16.260000228881836,-9.84000015258789,-30
1695200956883196700,0.58519677734375,-16.020000457763672,-9.960000038146973,-29.939998626708984
1695200956893195300,0.5951953125,-15.899999618530273,-10.139999389648438,-30.239999771118164
1695200956903194000,0.605194091796875,-16.139999389648438,-9.84000015258789,-30.959999084472656
1695200956913192700,0.615192626953125,-16.260000228881836,-10.380000114440918,-31.260000228881836
1695200956923191600,0.625191650390625,-16.3799991607666,-10.260000228881836,-31.559999465942383
1695200956933190100,0.635190185546875,-15.960000038146973,-10.319999694824219,-31.3799991607666
1695200956943188700,0.645188720703125,-15.779999732971191,-9.899999618530273,-30.239999771118164
1695200956953187600,0.6551875,-16.31999969482422,-9.899999618530273,-29.939998626708984
1695200956963186200,0.665186279296875,-16.260000228881836,-9.300000190734863,-29.399999618530273
1695200956973185000,0.67518505859375,-16.920000076293945,-9.239999771118164,-29.219999313354492
1695200956983184000,0.685183837890625,-17.279998779296875,-9.239999771118164,-29.639999389648438
1695200956993182500,0.695182373046875,-16.979999542236328,-9.119999885559082,-30.35999870300293
1695200957003181300,0.705181396484375,-16.85999870300293,-10.019999504089355,-30.899999618530273
1695200957013180200,0.71518017578125,-16.19999885559082,-10.319999694824219,-30.959999084472656
1695200957023178800,0.7251787109375,-15.899999618530273,-10.920000076293945,-30.959999084472656
1695200957033177600,0.735177490234375,-15.65999984741211,-11.639999389648438,-31.079999923706055
1695200957043176400,0.745176513671875,-16.020000457763672,-11.819999694824219,-30.65999984741211
1695200957053175000,0.755175048828125,-16.739999771118164,-12.239999771118164,-30.479999542236328
1695200957063174000,0.765173828125,-17.279998779296875,-12.359999656677246,-30.959999084472656
1695200957073172500,0.77517236328125,-17.520000457763672,-12.059999465942383,-30.84000015258789
1695200957083171300,0.78517138671875,-17.579999923706055,-11.819999694824219,-31.439998626708984
1695200957093170200,0.795170166015625,-17.15999984741211,-11.34000015258789,-32.099998474121094
1695200957103168800,0.805168701171875,-16.799999237060547,-11.09999942779541,-32.099998474121094
1695200957113167600,0.815167724609375,-16.920000076293945,-11.039999961853027,-32.52000045776367
1695200957123166500,0.82516650390625,-17.03999900817871,-10.619999885559082,-32.63999938964844
1695200957133165000,0.8351650390625,-17.03999900817871,-10.559999465942383,-32.63999938964844
1695200957143164000,0.845163818359375,-17.03999900817871,-9.84000015258789,-32.880001068115234
1695200957153162500,0.85516259765625,-17.459999084472656,-10.199999809265137,-32.459999084472656
1695200957163161300,0.865161376953125,-17.03999900817871,-10.319999694824219,-32.099998474121094
1695200957173160200,0.87516015625,-17.520000457763672,-10.319999694824219,-32.459999084472656
1695200957183158800,0.88515869140625,-17.940000534057617,-9.960000038146973,-32.39999771118164
1695200957193157600,0.89515771484375,-17.69999885559082,-8.460000038146973,-32.57999801635742
1695200957203156500,0.905156494140625,-18.18000030517578,-7.319999694824219,-33
1695200957213155000,0.915155029296875,-18.35999870300293,-6.239999771118164,-33
1695200957223154000,0.92515380859375,-17.760000228881836,-6.179999828338623,-33.29999923706055
1695200957233152500,0.935152587890625,-17.760000228881836,-6.359999656677246,-33.779998779296875
1695200957243151400,0.9451513671875,-17.34000015258789,-6.71999979019165,-34.20000076293945
1695200957253150200,0.955150146484375,-16.68000030517578,-6.899999618530273,-34.55999755859375
1695200957263148800,0.965148681640625,-16.85999870300293,-6.960000038146973,-35.34000015258789
1695200957273147600,0.975147705078125,-16.3799991607666,-6.71999979019165,-35.63999938964844
1695200957283146200,0.985146240234375,-15.479999542236328,-7.019999980926514,-36.47999954223633
1695200957293145000,0.99514501953125,-14.699999809265137,-6.899999618530273,-37.439998626708984
1695200957303143700,1.005143798828125,-13.4399995803833,-7.199999809265137,-38.39999771118164
1695200957313142500,1.015142578125,-11.639999389648438,-7.679999828338623,-40.13999938964844
1695200957323141000,1.02514111328125,-10.019999504089355,-7.259999752044678,-41.279998779296875
1695200957333140000,1.035139892578125,-8.09999942779541,-7.739999771118164,-42.23999786376953
1695200957343138600,1.045138671875,-6,-7.619999885559082,-43.37999725341797
1695200957353137400,1.055137451171875,-3.9599997997283936,-8.039999961853027,-44.279998779296875
1695200957363136000,1.065135986328125,-1.3799999952316284,-8.399999618530273,-45.119998931884766
1695200957373134800,1.075134765625,1.5,-8.15999984741211,-46.55999755859375
1695200957383133700,1.0851337890625,5.039999961853027,-7.799999713897705,-47.34000015258789
1695200957393132300,1.09513232421875,8.399999618530273,-7.37999963760376,-48.18000030517578
1695200957403131100,1.105131103515625,11.279999732971191,-6.71999979019165,-48.84000015258789
1695200957413129700,1.115129638671875,14.399999618530273,-5.940000057220459,-48.959999084472656
1695200957423128600,1.125128662109375,17.34000015258789,-5.21999979019165,-49.31999969482422
1695200957433127200,1.135127197265625,20.15999984741211,-3.8399999141693115,-49.13999938964844
1695200957443126000,1.1451259765625,23.34000015258789,-3.299999952316284,-48.959999084472656
1695200957453124900,1.155124755859375,25.85999870300293,-2.0399999618530273,-48.23999786376953
1695200957463123500,1.16512353515625,28.139999389648438,-0.47999998927116394,-47.03999710083008
1695200957473122300,1.175122314453125,30.719999313354492,0.35999998450279236,-46.55999755859375
1695200957483121200,1.18512109375,32.63999938964844,1.9799998998641968,-45.47999954223633
1695200957493119700,1.19511962890625,34.79999923706055,2.819999933242798,-44.81999969482422
1695200957503118600,1.20511865234375,37.20000076293945,3.9599997997283936,-44.34000015258789
1695200957513117400,1.215117431640625,38.52000045776367,5.639999866485596,-43.20000076293945
1695200957523116300,1.2251162109375,40.07999801635742,7.259999752044678,-42.47999954223633
1695200957533115000,1.235114990234375,41.52000045776367,8.880000114440918,-41.21999740600586
1695200957543113700,1.24511376953125,42.89999771118164,10.019999504089355,-39.84000015258789
1695200957553112300,1.2551123046875,44.459999084472656,11.279999732971191,-39
1695200957563111200,1.265111083984375,45.65999984741211,12.65999984741211,-38.15999984741211
1695200957573109800,1.27510986328125,47.03999710083008,14.34000015258789,-37.07999801635742
1695200957583108600,1.285108642578125,47.7599983215332,15.779999732971191,-36.599998474121094
1695200957593107500,1.295107421875,48.71999740600586,17.579999923706055,-35.63999938964844
1695200957603106300,1.305106201171875,49.07999801635742,18.719999313354492,-34.68000030517578
1695200957613105000,1.31510498046875,49.31999969482422,19.920000076293945,-33.959999084472656
1695200957623103700,1.325103759765625,49.13999938964844,21.600000381469727,-33.23999786376953
1695200957633102600,1.3351025390625,49.13999938964844,22.739999771118164,-31.979999542236328
1695200957643101400,1.345101318359375,49.91999816894531,23.939998626708984,-30.35999870300293
1695200957653100300,1.355100341796875,49.86000061035156,24.959999084472656,-29.34000015258789
1695200957663099400,1.365099365234375,50.39999771118164,25.920000076293945,-27.779998779296875
1695200957673098200,1.37509814453125,50.459999084472656,27.119998931884766,-26.69999885559082
1695200957683096800,1.385096923828125,50.21999740600586,28.739999771118164,-25.85999870300293
1695200957693096000,1.395095947265625,50.70000076293945,30,-25.079999923706055
1695200957703094800,1.4050947265625,50.7599983215332,31.079999923706055,-24.299999237060547
1695200957713093400,1.41509326171875,50.57999801635742,31.85999870300293,-24.239999771118164
1695200957723092200,1.42509228515625,50.57999801635742,33.119998931884766,-23.639999389648438
1695200957733091000,1.435091064453125,50.03999710083008,34.380001068115234,-22.68000030517578
1695200957743090000,1.44508984375,49.20000076293945,35.52000045776367,-22.079999923706055
1695200957753089000,1.455089111328125,48.959999084472656,36.29999923706055,-21.53999900817871
1695200957763088000,1.465087890625,48.23999786376953,37.20000076293945,-21.420000076293945
1695200957773086700,1.475086669921875,47.7599983215332,37.86000061035156,-21.18000030517578
1695200957783085600,1.48508544921875,47.87999725341797,38.279998779296875,-21.18000030517578
1695200957793084400,1.49508447265625,47.81999969482422,39.18000030517578,-20.399999618530273
1695200957803083300,1.505083251953125,47.81999969482422,39.540000915527344,-20.459999084472656
1695200957813082000,1.51508203125,47.7599983215332,39.540000915527344,-20.69999885559082
1695200957823081000,1.5250810546875,47.34000015258789,40.37999725341797,-20.219999313354492
1695200957833079800,1.535079833984375,46.97999954223633,40.79999923706055,-20.03999900817871
1695200957843078700,1.54507861328125,46.37999725341797,40.68000030517578,-19.559999465942383
1695200957853077500,1.555077392578125,45.84000015258789,41.87999725341797,-19.439998626708984
1695200957863076400,1.565076416015625,45.47999954223633,42.540000915527344,-19.559999465942383
1695200957873075200,1.5750751953125,45.05999755859375,42.65999984741211,-19.979999542236328
1695200957883074000,1.585073974609375,45.119998931884766,43.13999938964844,-20.399999618530273
1695200957893073000,1.595072998046875,44.21999740600586,42.41999816894531,-20.69999885559082
1695200957903071700,1.60507177734375,44.099998474121094,41.70000076293945,-21.18000030517578
1695200957913070600,1.615070556640625,44.21999740600586,41.57999801635742,-21.299999237060547
1695200957923069400,1.6250693359375,43.97999954223633,41.87999725341797,-21.420000076293945
1695200957933068000,1.635068115234375,44.81999969482422,42.36000061035156,-21.18000030517578
1695200957943067000,1.64506689453125,44.279998779296875,42.540000915527344,-21.239999771118164
1695200957953065500,1.6550654296875,43.73999786376953,42.84000015258789,-21.420000076293945
1695200957963064300,1.665064208984375,43.619998931884766,42.71999740600586,-21.479999542236328
1695200957973063000,1.67506298828125,43.07999801635742,42,-21.779998779296875
1695200957983061800,1.685061767578125,43.37999725341797,42.18000030517578,-21.53999900817871
1695200957993060400,1.695060302734375,43.55999755859375,41.7599983215332,-21.65999984741211
1695200958003059200,1.70505908203125,43.68000030517578,42.05999755859375,-21.65999984741211
1695200958013058000,1.71505810546875,44.279998779296875,42.599998474121094,-21.899999618530273
1695200958023056600,1.725056640625,44.34000015258789,42.36000061035156,-22.559999465942383
1695200958033055500,1.735055419921875,44.57999801635742,42.540000915527344,-22.68000030517578
1695200958043054300,1.745054443359375,44.279998779296875,42.18000030517578,-23.03999900817871
1695200958053053000,1.755052978515625,43.5,41.87999725341797,-22.979999542236328
1695200958063051800,1.7650517578125,43.13999938964844,41.70000076293945,-22.68000030517578
1695200958073050400,1.77505029296875,43.439998626708984,42.18000030517578,-22.68000030517578
1695200958083049200,1.78504931640625,43.439998626708984,42,-22.68000030517578
1695200958093048000,1.795048095703125,43.86000061035156,42.65999984741211,-23.219999313354492
1695200958103046700,1.805046630859375,44.099998474121094,43.2599983215332,-23.51999855041504
1695200958113045500,1.81504541015625,43.37999725341797,43.07999801635742,-24.18000030517578
1695200958123044400,1.82504443359375,43.5,43.439998626708984,-24.53999900817871
1695200958133043000,1.83504296875,43.02000045776367,43.439998626708984,-24.899999618530273
1695200958143041800,1.845041748046875,42.65999984741211,43.37999725341797,-25.439998626708984
1695200958153040600,1.85504052734375,42.29999923706055,42.84000015258789,-25.079999923706055
1695200958163039200,1.865039306640625,42.47999954223633,43.07999801635742,-25.01999855041504
1695200958173038000,1.8750380859375,42.36000061035156,42.779998779296875,-24.959999084472656
1695200958183036700,1.88503662109375,42.540000915527344,42.89999771118164,-25.01999855041504
1695200958193035500,1.895035400390625,42.959999084472656,43.79999923706055,-25.739999771118164
1695200958203034400,1.905034423828125,42.65999984741211,43.619998931884766,-26.15999984741211
1695200958213033000,1.915032958984375,42.540000915527344,43.55999755859375,-26.459999084472656
1695200958223031800,1.92503173828125,42.65999984741211,43.13999938964844,-26.81999969482422
1695200958233030400,1.935030517578125,42.41999816894531,42.36000061035156,-27
1695200958243029200,1.945029296875,42.959999084472656,41.81999969482422,-27.239999771118164
1695200958253028000,1.955028076171875,43.37999725341797,41.459999084472656,-27.239999771118164
1695200958263026700,1.965026611328125,43.68000030517578,40.86000061035156,-26.8799991607666
1695200958273025500,1.975025634765625,44.040000915527344,40.31999969482422,-26.760000228881836
1695200958283024400,1.9850244140625,44.099998474121094,39.89999771118164,-26.81999969482422
1695200958293023000,1.99502294921875,44.099998474121094,39.65999984741211,-27
1695200958303021800,2.005021728515625,43.86000061035156,39.959999084472656,-27.719999313354492
1695200958313020400,2.0150205078125,43.73999786376953,39.84000015258789,-28.139999389648438
1695200958323019300,2.025019287109375,43.439998626708984,40.5,-28.31999969482422
1695200958333017900,2.035017822265625,43.73999786376953,40.31999969482422,-28.799999237060547
1695200958343016700,2.0450166015625,43.619998931884766,39.779998779296875,-28.85999870300293
1695200958353015300,2.055015380859375,43.91999816894531,39.89999771118164,-29.099998474121094
1695200958363014100,2.06501416015625,43.5,39.41999816894531,-28.739999771118164
1695200958373012700,2.0750126953125,42.959999084472656,39.23999786376953,-29.03999900817871
1695200958383011600,2.085011474609375,43.02000045776367,39.599998474121094,-28.979999542236328
1695200958393010200,2.09501025390625,42.540000915527344,40.13999938964844,-29.099998474121094
1695200958403009000,2.105009033203125,42.71999740600586,40.37999725341797,-29.459999084472656
1695200958413007600,2.115007568359375,42.89999771118164,40.73999786376953,-29.459999084472656
1695200958423006500,2.12500634765625,42.41999816894531,41.279998779296875,-29.51999855041504
1695200958433005300,2.13500537109375,42.18000030517578,41.34000015258789,-29.579999923706055
1695200958443004000,2.14500390625,41.70000076293945,42.29999923706055,-29.459999084472656
1695200958453002800,2.155002685546875,41.099998474121094,43.07999801635742,-28.85999870300293
1695200958463001300,2.16500146484375,40.37999725341797,43.619998931884766,-29.399999618530273
1695200958473000200,2.175000244140625,39.05999755859375,44.459999084472656,-28.979999542236328
1695200958482999000,2.1849990234375,38.040000915527344,44.70000076293945,-29.399999618530273
1695200958492997600,2.19499755859375,37.73999786376953,45.41999816894531,-29.219999313354492
1695200958502996500,2.20499658203125,37.439998626708984,45.89999771118164,-28.559999465942383
1695200958512995300,2.214995361328125,37.5,45.779998779296875,-29.03999900817871
1695200958522994000,2.224993896484375,37.02000045776367,46.37999725341797,-28.68000030517578
1695200958532992800,2.23499267578125,36.47999954223633,47.39999771118164,-28.799999237060547
1695200958542991400,2.244991455078125,35.57999801635742,47.7599983215332,-28.739999771118164
1695200958552990200,2.254990234375,35.040000915527344,48.779998779296875,-27.779998779296875
1695200958562989000,2.264989013671875,34.619998931884766,49.07999801635742,-27.479999542236328
1695200958572987600,2.274987548828125,33.23999786376953,48.779998779296875,-27.479999542236328
1695200958582986500,2.284986572265625,33.05999755859375,49.13999938964844,-27.239999771118164
1695200958592985000,2.294985107421875,33.119998931884766,49.37999725341797,-27.420000076293945
1695200958602984000,2.30498388671875,33.18000030517578,49.5,-27
1695200958612982800,2.314982666015625,34.13999938964844,49.73999786376953,-26.579999923706055
1695200958622981400,2.3249814453125,34.02000045776367,50.03999710083008,-26.15999984741211
1695200958632980200,2.334980224609375,34.2599983215332,50.15999984741211,-26.15999984741211
1695200958642979000,2.34497900390625,34.55999755859375,50.15999984741211,-25.68000030517578
1695200958652977700,2.354977783203125,34.20000076293945,49.91999816894531,-24.899999618530273
1695200958662976500,2.3649765625,34.13999938964844,49.5,-24.479999542236328
1695200958672975600,2.3749755859375,34.13999938964844,49.13999938964844,-23.8799991607666
1695200958682974500,2.384974365234375,34.68000030517578,49.31999969482422,-23.399999618530273
1695200958692973300,2.394973388671875,34.97999954223633,49.619998931884766,-23.34000015258789
1695200958702972400,2.404972412109375,35.52000045776367,49.79999923706055,-23.03999900817871
1695200958712971300,2.41497119140625,36.18000030517578,50.279998779296875,-22.139999389648438
1695200958722970400,2.424970458984375,35.880001068115234,50.52000045776367,-21.299999237060547
1695200958732969200,2.43496923828125,36.36000061035156,50.63999938964844,-20.279998779296875
1695200958742968300,2.44496826171875,37.07999801635742,50.939998626708984,-18.53999900817871
1695200958752967400,2.454967529296875,36.89999771118164,50.87999725341797,-16.19999885559082
1695200958762966500,2.464966552734375,37.68000030517578,51.23999786376953,-14.15999984741211
1695200958772965600,2.474965576171875,38.040000915527344,51.71999740600586,-11.460000038146973
1695200958782964700,2.48496484375,38.15999984741211,52.37999725341797,-8.579999923706055
1695200958792963600,2.494963623046875,38.21999740600586,53.39999771118164,-6.71999979019165
1695200958802962700,2.504962646484375,37.380001068115234,53.279998779296875,-4.980000019073486
1695200958812961800,2.5149619140625,37.2599983215332,53.57999801635742,-3.359999895095825
1695200958822961000,2.5249609375,37.55999755859375,53.279998779296875,-2.879999876022339
1695200958832959700,2.534959716796875,38.279998779296875,52.68000030517578,-2.2799999713897705
1695200958842958800,2.544958740234375,39.89999771118164,52.37999725341797,-1.0199999809265137
1695200958852958000,2.5549580078125,40.73999786376953,52.02000045776367,-1.0199999809265137
1695200958862957000,2.56495703125,41.39999771118164,51.41999816894531,-0.41999998688697815
1695200958872956200,2.5749560546875,42.05999755859375,51.18000030517578,0.6599999666213989
1695200958882955300,2.584955322265625,42.18000030517578,50.7599983215332,0.35999998450279236
1695200958892954400,2.594954345703125,42.89999771118164,50.52000045776367,0.5999999642372131
1695200958902953200,2.604953125,43.97999954223633,50.57999801635742,0.11999999731779099
1695200958912952300,2.614952392578125,44.099998474121094,49.619998931884766,-0.6599999666213989
1695200958922951400,2.624951416015625,44.63999938964844,49.20000076293945,-0.8399999737739563
1695200958932950500,2.634950439453125,45.119998931884766,48.41999816894531,-1.2599999904632568
1695200958942949400,2.644949462890625,44.87999725341797,47.939998626708984,-1.1399999856948853
1695200958952948500,2.654948486328125,45.599998474121094,47.939998626708984,-1.1399999856948853
1695200958962947600,2.664947509765625,45.84000015258789,47.87999725341797,-1.559999942779541
1695200958972946400,2.674946533203125,46.07999801635742,47.63999938964844,-1.6799999475479126
1695200958982945300,2.6849453125,46.5,47.52000045776367,-2.3999998569488525
1695200958992944000,2.694944091796875,45.779998779296875,47.939998626708984,-3.240000009536743
1695200959002943000,2.70494287109375,45.36000061035156,48.18000030517578,-3.7799999713897705
1695200959012941800,2.71494189453125,45.119998931884766,48.599998474121094,-4.079999923706055
1695200959022940700,2.724940673828125,44.279998779296875,48.89999771118164,-3.5399999618530273
1695200959032939300,2.734939208984375,44.21999740600586,48.65999984741211,-3.359999895095825
1695200959042937900,2.744937744140625,44.21999740600586,49.02000045776367,-3
1695200959052936700,2.754936767578125,43.20000076293945,49.31999969482422,-2.819999933242798
1695200959062935600,2.764935546875,42.71999740600586,49.5,-3.119999885559082
1695200959072934100,2.77493408203125,41.939998626708984,50.34000015258789,-3.119999885559082
1695200959082933000,2.78493310546875,41.099998474121094,50.7599983215332,-3.179999828338623
1695200959092931600,2.794931640625,40.79999923706055,51.53999710083008,-3.4800000190734863
1695200959102930400,2.804930419921875,40.55999755859375,52.439998626708984,-3.4800000190734863
1695200959112929000,2.814928955078125,40.68000030517578,52.97999954223633,-3.9599997997283936
1695200959122927900,2.824927978515625,40.37999725341797,53.39999771118164,-4.199999809265137
1695200959132926500,2.834926513671875,39.36000061035156,53.03999710083008,-4.259999752044678
1695200959142925300,2.84492529296875,37.68000030517578,52.79999923706055,-3.7799999713897705
1695200959152924200,2.854924072265625,36.47999954223633,52.91999816894531,-2.700000047683716
1695200959162922800,2.8649228515625,35.7599983215332,53.57999801635742,-2.1599998474121094
1695200959172921600,2.874921630859375,35.52000045776367,54.47999954223633,-1.7400000095367432
1695200959182920200,2.884920166015625,35.39999771118164,54.71999740600586,-1.9199999570846558
1695200959192919000,2.8949189453125,35.279998779296875,54.71999740600586,-2.3399999141693115
1695200959202918000,2.90491796875,34.86000061035156,54.18000030517578,-2.6399998664855957
1695200959212916500,2.91491650390625,34.68000030517578,53.7599983215332,-2.6399998664855957
1695200959222915300,2.924915283203125,35.099998474121094,53.81999969482422,-3.7799999713897705
1695200959232914000,2.934913818359375,35.099998474121094,53.7599983215332,-4.079999923706055
1695200959242912800,2.944912841796875,35.39999771118164,53.34000015258789,-4.679999828338623
1695200959252911600,2.95491162109375,36.47999954223633,53.15999984741211,-5.579999923706055
1695200959262910200,2.96491015625,36.65999984741211,52.37999725341797,-5.639999866485596
1695200959272909000,2.974908935546875,37.380001068115234,51.89999771118164,-6.239999771118164
1695200959282908000,2.984907958984375,37.73999786376953,51.65999984741211,-6.71999979019165
1695200959292906500,2.994906494140625,37.68000030517578,51.779998779296875,-6.539999961853027
1695200959302905300,3.0049052734375,38.63999938964844,51.53999710083008,-6.539999961853027
1695200959312904200,3.014904296875,38.7599983215332,51.29999923706055,-6.239999771118164
1695200959322902800,3.02490283203125,39.18000030517578,51.29999923706055,-6
1695200959332901600,3.034901611328125,39.540000915527344,50.459999084472656,-6.420000076293945
1695200959342900200,3.044900146484375,40.20000076293945,50.34000015258789,-6.239999771118164
1695200959352899000,3.054899169921875,41.459999084472656,49.55999755859375,-6.71999979019165
1695200959362898000,3.06489794921875,42.29999923706055,49.02000045776367,-6.539999961853027
1695200959372896500,3.074896484375,43.68000030517578,48.71999740600586,-6.179999828338623
1695200959382895400,3.084895263671875,44.040000915527344,48.71999740600586,-6.539999961853027
1695200959392894200,3.094894287109375,43.97999954223633,49.2599983215332,-6.179999828338623
1695200959402892800,3.104892822265625,44.459999084472656,49.13999938964844,-6.659999847412109
1695200959412891600,3.1148916015625,44.39999771118164,49.68000030517578,-6.960000038146973
1695200959422890200,3.12489013671875,44.87999725341797,49.619998931884766,-7.139999866485596
1695200959432889000,3.13488916015625,45,49.07999801635742,-7.739999771118164
1695200959442887700,3.1448876953125,45.41999816894531,49.439998626708984,-7.559999942779541
1695200959452886500,3.154886474609375,45.65999984741211,48.599998474121094,-7.440000057220459
1695200959462885000,3.164885009765625,45.599998474121094,48.53999710083008,-7.079999923706055
1695200959472884000,3.174884033203125,45.65999984741211,48.599998474121094,-6.299999713897705
1695200959482882600,3.184882568359375,44.939998626708984,48.05999755859375,-6
1695200959492881400,3.19488134765625,44.57999801635742,48.29999923706055,-6
1695200959502880000,3.2048798828125,44.7599983215332,48.29999923706055,-5.819999694824219
1695200959512878800,3.21487890625,44.57999801635742,48.41999816894531,-5.940000057220459
1695200959522877400,3.22487744140625,44.87999725341797,48.41999816894531,-6.119999885559082
1695200959532876300,3.234876220703125,45,48.599998474121094,-5.759999752044678
1695200959542875000,3.244875,44.34000015258789,48.599998474121094,-5.819999694824219
1695200959552873700,3.254873779296875,44.459999084472656,48.84000015258789,-5.579999923706055
1695200959562872600,3.26487255859375,43.91999816894531,49.07999801635742,-5.21999979019165
1695200959572871200,3.27487109375,43.31999969482422,49.55999755859375,-4.980000019073486
1695200959582870000,3.2848701171875,42.84000015258789,49.619998931884766,-5.099999904632568
1695200959592868600,3.29486865234375,43.07999801635742,48.71999740600586,-5.579999923706055
1695200959602867500,3.304867431640625,43.73999786376953,48.53999710083008,-5.159999847412109
1695200959612866300,3.3148662109375,44.57999801635742,47.34000015258789,-5.460000038146973
1695200959622865000,3.324864990234375,45.47999954223633,46.86000061035156,-4.980000019073486
1695200959632863700,3.33486376953125,45.89999771118164,47.34000015258789,-4.559999942779541
1695200959642862600,3.344862548828125,46.20000076293945,47.34000015258789,-4.920000076293945
1695200959652861200,3.354861083984375,46.5,47.87999725341797,-5.159999847412109
1695200959662860000,3.364860107421875,46.439998626708984,48.29999923706055,-5.039999961853027
1695200959672858600,3.374858642578125,46.07999801635742,48.47999954223633,-5.279999732971191
1695200959682857500,3.384857421875,45.47999954223633,49.02000045776367,-5.400000095367432
1695200959692856300,3.394856201171875,44.87999725341797,49.20000076293945,-4.799999713897705
1695200959702855000,3.40485498046875,44.52000045776367,49.2599983215332,-4.380000114440918
1695200959712853800,3.414853759765625,44.279998779296875,49.619998931884766,-3.179999828338623
1695200959722852400,3.424852294921875,44.040000915527344,50.21999740600586,-2.6399998664855957
1695200959732851200,3.434851318359375,43.91999816894531,50.459999084472656,-2.6399998664855957
1695200959742850000,3.44485009765625,43.619998931884766,50.57999801635742,-2.5199999809265137
1695200959752849000,3.454848876953125,43.439998626708984,50.03999710083008,-3.359999895095825
1695200959762847700,3.46484765625,43.55999755859375,49.07999801635742,-3.7200000286102295
1695200959772846600,3.4748466796875,43.73999786376953,48.959999084472656,-3.5399999618530273
1695200959782845400,3.484845458984375,43.619998931884766,48.29999923706055,-3.9599997997283936
1695200959792844300,3.49484423828125,44.21999740600586,48.47999954223633,-4.259999752044678
1695200959802843100,3.504843017578125,44.7599983215332,48.41999816894531,-4.559999942779541
1695200959812842000,3.514842041015625,44.459999084472656,47.939998626708984,-5.099999904632568
1695200959822840800,3.5248408203125,45.23999786376953,48.36000061035156,-5.639999866485596
1695200959832839700,3.534839599609375,44.7599983215332,48.18000030517578,-5.639999866485596
1695200959842838500,3.544838623046875,44.63999938964844,48,-5.639999866485596
1695200959852837400,3.55483740234375,44.81999969482422,47.939998626708984,-6
1695200959862836200,3.564836181640625,45.119998931884766,47.81999969482422,-6.539999961853027
1695200959872835300,3.57483544921875,45.71999740600586,48,-6.480000019073486
1695200959882834200,3.584834228515625,45.65999984741211,48.18000030517578,-7.019999980926514
1695200959892833000,3.5948330078125,46.2599983215332,48.36000061035156,-7.319999694824219
1695200959902831600,3.60483154296875,45.65999984741211,48,-7.37999963760376
1695200959912830700,3.614830810546875,45.29999923706055,47.57999801635742,-8.15999984741211
1695200959922829600,3.62482958984375,45.29999923706055,47.57999801635742,-8.399999618530273
1695200959932828200,3.634828125,45.18000030517578,47.099998474121094,-8.34000015258789
1695200959942827300,3.6448271484375,45.29999923706055,47.279998779296875,-8.760000228881836
1695200959952826000,3.654826171875,45,47.57999801635742,-8.519999504089355
1695200959963437600,3.6654375,44.7599983215332,47.63999938964844,-8.760000228881836
1695200959973436400,3.6754365234375,44.63999938964844,48.29999923706055,-9.59999942779541
1695200959983435300,3.685435302734375,44.63999938964844,48.23999786376953,-9.420000076293945
1695200959993434000,3.69543408203125,45,48.599998474121094,-10.019999504089355
1695200960003433000,3.705432861328125,45.71999740600586,49.07999801635742,-9.59999942779541
1695200960013431800,3.715431884765625,45.71999740600586,49.31999969482422,-9.239999771118164
1695200960023430700,3.7254306640625,45.959999084472656,49.37999725341797,-9.059999465942383
1695200960033429500,3.735429443359375,46.2599983215332,49.55999755859375,-8.579999923706055
1695200960043428400,3.745428466796875,45.119998931884766,48.89999771118164,-8.699999809265137
1695200960053427200,3.75542724609375,45,48.41999816894531,-8.460000038146973
1695200960063426000,3.765426025390625,44.70000076293945,48.84000015258789,-8.760000228881836
1695200960073424600,3.775424560546875,44.34000015258789,48.119998931884766,-9
1695200960083423500,3.785423583984375,44.939998626708984,48.36000061035156,-9.059999465942383
1695200960093422300,3.79542236328125,44.81999969482422,47.939998626708984,-9.59999942779541
1695200960103421000,3.8054208984375,44.939998626708984,48,-9.779999732971191
1695200960113419800,3.815419677734375,44.81999969482422,48.53999710083008,-9.65999984741211
1695200960123418400,3.82541845703125,44.34000015258789,48.65999984741211,-10.079999923706055
1695200960133417200,3.835417236328125,44.7599983215332,49.2599983215332,-10.319999694824219
1695200960143415800,3.845415771484375,44.7599983215332,49.13999938964844,-10.4399995803833
1695200960153414700,3.85541455078125,44.70000076293945,49.20000076293945,-11.039999961853027
1695200960163413200,3.865413330078125,45,49.37999725341797,-11.15999984741211
1695200960173412000,3.875412109375,45.18000030517578,49.5,-10.800000190734863
1695200960183410700,3.88541064453125,44.87999725341797,49.13999938964844,-10.260000228881836
1695200960193409500,3.895409423828125,44.52000045776367,48.84000015258789,-9.59999942779541
1695200960203408400,3.905408447265625,45.05999755859375,48.36000061035156,-8.34000015258789
1695200960213407000,3.915406982421875,44.63999938964844,48.41999816894531,-7.440000057220459
1695200960223405800,3.92540576171875,45.29999923706055,48.23999786376953,-7.079999923706055
1695200960233404700,3.93540478515625,46.02000045776367,48,-7.139999866485596
1695200960243403300,3.9454033203125,45.41999816894531,47.939998626708984,-7.559999942779541
1695200960253402000,3.955402099609375,45.36000061035156,47.459999084472656,-7.859999656677246
1695200960263401000,3.96540087890625,44.57999801635742,47.279998779296875,-8.760000228881836
1695200960273399600,3.975399658203125,44.15999984741211,47.03999710083008,-9.179999351501465
1695200960283398400,3.9853984375,43.97999954223633,46.68000030517578,-10.4399995803833
1695200960293397200,3.995397216796875,44.099998474121094,46.55999755859375,-12.300000190734863
1695200960303395800,4.005395751953125,44.34000015258789,46.07999801635742,-13.25999927520752
1695200960313394700,4.015394775390625,44.040000915527344,46.02000045776367,-14.519999504089355
1695200960323393300,4.025393310546875,44.459999084472656,46.37999725341797,-15.479999542236328
1695200960333392100,4.03539208984375,44.040000915527344,46.439998626708984,-15.359999656677246
1695200960343391000,4.045390869140625,43.86000061035156,47.34000015258789,-15
1695200960353389800,4.055389892578125,44.15999984741211,47.34000015258789,-14.519999504089355
1695200960363388400,4.065388427734375,44.099998474121094,47.70000076293945,-13.380000114440918
1695200960373387300,4.07538720703125,44.21999740600586,47.70000076293945,-12.719999313354492
1695200960383386000,4.08538623046875,44.459999084472656,47.34000015258789,-12.059999465942383
1695200960393384700,4.095384765625,44.63999938964844,48.23999786376953,-10.979999542236328
1695200960403383600,4.105383544921875,44.39999771118164,48.29999923706055,-10.800000190734863
1695200960413382100,4.115382080078125,44.63999938964844,48.84000015258789,-9.420000076293945
1695200960423381000,4.125381103515625,44.52000045776367,49.55999755859375,-8.279999732971191
1695200960433379600,4.135379638671875,44.52000045776367,49.55999755859375,-8.279999732971191
1695200960443378400,4.14537841796875,44.52000045776367,49.37999725341797,-8.279999732971191
1695200960453377000,4.155376953125,44.63999938964844,48.89999771118164,-7.079999923706055
1695200960463376000,4.1653759765625,44.099998474121094,48.89999771118164,-7.679999828338623
1695200960473374500,4.17537451171875,43.97999954223633,48.89999771118164,-8.399999618530273
1695200960483373300,4.185373291015625,43.91999816894531,48.71999740600586,-8.399999618530273
1695200960493372000,4.195371826171875,43.97999954223633,49.20000076293945,-9
1695200960503370800,4.205370849609375,44.099998474121094,49.439998626708984,-8.639999389648438
1695200960513369600,4.21536962890625,44.279998779296875,49.79999923706055,-8.819999694824219
1695200960523368200,4.2253681640625,43.73999786376953,50.57999801635742,-8.639999389648438
1695200960533367000,4.235366943359375,43.97999954223633,50.34000015258789,-9.059999465942383
1695200960543365600,4.24536572265625,43.91999816894531,50.03999710083008,-9.719999313354492
1695200960553364500,4.255364501953125,44.34000015258789,49.68000030517578,-9.960000038146973
1695200960563363000,4.265363037109375,44.39999771118164,49.13999938964844,-10.079999923706055
1695200960573362000,4.27536181640625,43.86000061035156,49.5,-9.420000076293945
1695200960583360500,4.285360595703125,43.86000061035156,49.619998931884766,-9
1695200960593359400,4.295359375,43.20000076293945,49.73999786376953,-8.819999694824219
1695200960603358200,4.305358154296875,43.5,49.97999954223633,-9.359999656677246
1695200960613356800,4.315356689453125,43.02000045776367,50.21999740600586,-9.59999942779541
1695200960623355600,4.325355712890625,43.5,50.34000015258789,-9.84000015258789
1695200960633354500,4.3353544921875,43.31999969482422,50.34000015258789,-9.65999984741211
1695200960643353000,4.34535302734375,43.07999801635742,50.52000045776367,-8.9399995803833
1695200960653352000,4.35535205078125,43.439998626708984,50.52000045776367,-9
1695200960663350800,4.365350830078125,42.779998779296875,50.57999801635742,-8.699999809265137
1695200960673349400,4.375349365234375,42.959999084472656,50.81999969482422,-8.220000267028809
1695200960683348200,4.38534814453125,43.37999725341797,50.81999969482422,-8.399999618530273
1695200960693346800,4.395346923828125,43.13999938964844,50.52000045776367,-8.760000228881836
1695200960703345700,4.405345703125,43.55999755859375,50.70000076293945,-8.579999923706055
1695200960713344300,4.41534423828125,43.619998931884766,50.39999771118164,-8.819999694824219
1695200960723343000,4.425343017578125,43.439998626708984,49.97999954223633,-8.9399995803833
1695200960733342000,4.435342041015625,43.79999923706055,50.099998474121094,-8.880000114440918
1695200960743340800,4.4453408203125,43.2599983215332,50.279998779296875,-9.719999313354492
1695200960753339400,4.45533935546875,42.779998779296875,50.52000045776367,-9.779999732971191
1695200960763338200,4.465338134765625,42.36000061035156,51.05999755859375,-10.139999389648438
1695200960773337000,4.475337158203125,42.18000030517578,51.119998931884766,-10.319999694824219
1695200960783335700,4.485335693359375,42.540000915527344,50.81999969482422,-9.960000038146973
1695200960793334500,4.49533447265625,42.599998474121094,50.459999084472656,-10.800000190734863
1695200960803333400,4.50533349609375,42.84000015258789,50.39999771118164,-10.559999465942383
1695200960813332200,4.515332275390625,42.84000015258789,50.52000045776367,-10.260000228881836
1695200960823331000,4.5253310546875,42.47999954223633,50.15999984741211,-10.199999809265137
1695200960833330200,4.535330078125,42,50.34000015258789,-9.719999313354492
1695200960843329000,4.5453291015625,41.70000076293945,49.97999954223633,-10.199999809265137
1695200960853328100,4.555328125,41.34000015258789,49.97999954223633,-10.380000114440918
1695200960863327000,4.565326904296875,40.86000061035156,50.57999801635742,-10.800000190734863
1695200960873326000,4.575326171875,41.040000915527344,50.70000076293945,-10.679999351501465
1695200960883325200,4.5853251953125,41.15999984741211,51.05999755859375,-10.199999809265137
1695200960893324300,4.59532421875,40.73999786376953,51.18000030517578,-10.619999885559082
1695200960903323100,4.6053232421875,40.91999816894531,51.18000030517578,-10.139999389648438
1695200960913322200,4.615322265625,40.91999816894531,51.41999816894531,-10.739999771118164
1695200960923321300,4.6253212890625,40.79999923706055,51.36000061035156,-11.09999942779541
1695200960933320400,4.635320556640625,40.91999816894531,51.119998931884766,-11.34000015258789
1695200960943319300,4.6453193359375,40.91999816894531,51.05999755859375,-11.579999923706055
1695200960953318400,4.655318359375,40.86000061035156,51.18000030517578,-10.859999656677246
1695200960963317500,4.6653173828125,40.439998626708984,51.599998474121094,-10.260000228881836
1695200960973316600,4.675316650390625,40.91999816894531,52.37999725341797,-9.179999351501465
1695200960983315700,4.685315673828125,40.73999786376953,52.19999694824219,-9.479999542236328
1695200960993314800,4.695314697265625,40.79999923706055,51.71999740600586,-9.899999618530273
1695200961003313700,4.705313720703125,41.459999084472656,51.53999710083008,-10.199999809265137
1695200961013312800,4.715312744140625,41.099998474121094,51.05999755859375,-10.800000190734863
1695200961023312000,4.725311767578125,41.39999771118164,51.23999786376953,-10.380000114440918
1695200961033311000,4.73531103515625,41.459999084472656,51.47999954223633,-10.4399995803833
1695200961043310000,4.74531005859375,40.97999954223633,51.53999710083008,-10.380000114440918
1695200961053309000,4.755308837890625,41.099998474121094,51.89999771118164,-10.019999504089355
1695200961063308000,4.76530810546875,41.39999771118164,51.71999740600586,-10.139999389648438
1695200961073307100,4.77530712890625,41.279998779296875,51.959999084472656,-10.079999923706055
1695200961083306200,4.78530615234375,41.099998474121094,52.07999801635742,-10.079999923706055
1695200961093305000,4.79530517578125,40.97999954223633,51.599998474121094,-10.319999694824219
1695200961103304200,4.80530419921875,40.31999969482422,52.13999938964844,-10.019999504089355
1695200961113303000,4.815302978515625,40.439998626708984,51.959999084472656,-9.84000015258789
1695200961123302000,4.825302001953125,40.439998626708984,51.65999984741211,-9.359999656677246
1695200961133301000,4.835301025390625,40.91999816894531,52.2599983215332,-9.119999885559082
1695200961143299800,4.8452998046875,41.52000045776367,52.07999801635742,-9.119999885559082
1695200961153298400,4.85529833984375,41.459999084472656,52.07999801635742,-8.699999809265137
1695200961163297300,4.86529736328125,41.63999938964844,52.19999694824219,-9.059999465942383
1695200961173296000,4.875296142578125,41.279998779296875,51.959999084472656,-8.9399995803833
1695200961183294700,4.885294677734375,40.5,51.779998779296875,-8.9399995803833
1695200961193293300,4.895293212890625,40.439998626708984,51.53999710083008,-8.880000114440918
1695200961203292200,4.905292236328125,39.65999984741211,51.119998931884766,-8.519999504089355
1695200961213291000,4.915291015625,39.779998779296875,51.18000030517578,-8.639999389648438
1695200961223289600,4.92528955078125,40.13999938964844,51.23999786376953,-9
1695200961233288400,4.935288330078125,40.07999801635742,51.53999710083008,-9.300000190734863
1695200961243287000,4.945287109375,40.37999725341797,51.47999954223633,-9.539999961853027
1695200961253286000,4.955285888671875,39.959999084472656,50.939998626708984,-9.179999351501465
1695200961263284500,4.965284423828125,39.71999740600586,51.18000030517578,-8.9399995803833
1695200961273283300,4.975283447265625,39.47999954223633,51.29999923706055,-9.719999313354492
1695200961283282000,4.985281982421875,39.36000061035156,51.779998779296875,-9.960000038146973
1695200961293280800,4.99528076171875,38.87999725341797,51.84000015258789,-10.260000228881836
1695200961303279600,5.005279541015625,38.87999725341797,51.779998779296875,-10.619999885559082
1695200961313278200,5.0152783203125,39.41999816894531,51.84000015258789,-10.019999504089355
1695200961323277000,5.025277099609375,39.71999740600586,51.599998474121094,-9.84000015258789
1695200961333275600,5.035275634765625,39.779998779296875,52.13999938964844,-10.079999923706055
1695200961343274500,5.0452744140625,39.540000915527344,52.37999725341797,-9.84000015258789
1695200961353273300,5.0552734375,38.87999725341797,52.07999801635742,-10.019999504089355
1695200961363272000,5.06527197265625,38.57999801635742,52.07999801635742,-10.260000228881836
1695200961373270800,5.075270751953125,38.7599983215332,51.41999816894531,-10.139999389648438
1695200961383269600,5.08526953125,38.279998779296875,51.119998931884766,-9.779999732971191
1695200961393268500,5.0952685546875,38.279998779296875,51.119998931884766,-10.139999389648438
1695200961403267000,5.10526708984375,38.099998474121094,51.89999771118164,-10.380000114440918
1695200961413266000,5.115265869140625,38.21999740600586,52.31999969482422,-10.739999771118164
1695200961423264500,5.125264404296875,38.459999084472656,52.619998931884766,-11.699999809265137
1695200961433263400,5.135263427734375,38.39999771118164,52.73999786376953,-11.699999809265137
1695200961443262000,5.145261962890625,38.459999084472656,52.55999755859375,-11.639999389648438
1695200961453260800,5.1552607421875,38.21999740600586,52.91999816894531,-11.279999732971191
1695200961463259600,5.165259765625,38.099998474121094,53.03999710083008,-10.679999351501465
1695200961473258200,5.17525830078125,38.21999740600586,53.52000045776367,-10.079999923706055
1695200961483257000,5.185257080078125,37.73999786376953,53.279998779296875,-9.539999961853027
1695200961493256000,5.195255859375,38.040000915527344,53.279998779296875,-9.84000015258789
1695200961503254500,5.205254638671875,38.39999771118164,53.69999694824219,-10.019999504089355
1695200961513253400,5.21525341796875,38.15999984741211,53.52000045776367,-10.5
1695200961523252200,5.225252197265625,38.939998626708984,53.7599983215332,-10.859999656677246
1695200961533250800,5.235250732421875,38.87999725341797,53.39999771118164,-10.619999885559082
1695200961543249700,5.245249755859375,38.279998779296875,53.03999710083008,-10.019999504089355
1695200961553248300,5.255248291015625,38.099998474121094,53.21999740600586,-9.59999942779541
1695200961563247000,5.2652470703125,37.79999923706055,53.15999984741211,-9.359999656677246
1695200961573245700,5.27524560546875,38.21999740600586,53.57999801635742,-9.479999542236328
1695200961583244500,5.28524462890625,38.459999084472656,53.39999771118164,-9.899999618530273
1695200961593243400,5.295243408203125,39,53.099998474121094,-9.779999732971191
1695200961603242000,5.305241943359375,39.29999923706055,53.15999984741211,-9.420000076293945
1695200961613240800,5.31524072265625,38.57999801635742,52.86000061035156,-9.179999351501465
1695200961623239400,5.325239501953125,38.70000076293945,53.21999740600586,-9
1695200961633238300,5.33523828125,38.21999740600586,53.34000015258789,-8.9399995803833
1695200961643236900,5.34523681640625,38.21999740600586,53.34000015258789,-9.119999885559082
1695200961653235700,5.355235595703125,38.70000076293945,53.57999801635742,-9.059999465942383
1695200961663234300,5.365234375,38.7599983215332,54,-9.539999961853027
1695200961673233200,5.375233154296875,39.18000030517578,54.05999755859375,-9.960000038146973
1695200961683231700,5.385231689453125,38.81999969482422,54.119998931884766,-10.079999923706055
1695200961693230600,5.395230712890625,38.57999801635742,53.279998779296875,-10.380000114440918
1695200961703229400,5.4052294921875,38.39999771118164,52.97999954223633,-9.84000015258789
1695200961713228000,5.41522802734375,39,53.39999771118164,-9.359999656677246
1695200961723227000,5.425226806640625,38.459999084472656,52.91999816894531,-9.479999542236328
1695200961733225700,5.435225830078125,38.52000045776367,53.34000015258789,-9.119999885559082
1695200961743224300,5.445224365234375,38.70000076293945,52.5,-9.420000076293945
1695200961753223200,5.45522314453125,37.68000030517578,51.53999710083008,-9.359999656677246
1695200961763221800,5.4652216796875,38.040000915527344,51.41999816894531,-9
1695200961773220600,5.475220703125,38.459999084472656,51.29999923706055,-9.239999771118164
1695200961783219500,5.485219482421875,38.459999084472656,51.84000015258789,-9.179999351501465
1695200961793218000,5.495218017578125,38.87999725341797,52.13999938964844,-9.300000190734863
1695200961803217000,5.505216796875,39.779998779296875,52.2599983215332,-8.9399995803833
1695200961813215500,5.515215576171875,39.29999923706055,52.13999938964844,-8.460000038146973
1695200961823214300,5.52521435546875,39.599998474121094,52.2599983215332,-8.15999984741211
1695200961833213200,5.535213134765625,39.47999954223633,51.779998779296875,-8.460000038146973
1695200961843211800,5.545211669921875,39,51.959999084472656,-8.399999618530273
1695200961853210600,5.555210693359375,39.18000030517578,52.13999938964844,-8.09999942779541
1695200961863209200,5.565209228515625,38.70000076293945,51.53999710083008,-8.09999942779541
1695200961873208000,5.5752080078125,39.05999755859375,52.02000045776367,-7.739999771118164
1695200961883207000,5.58520703125,39.29999923706055,51.959999084472656,-8.09999942779541
1695200961893205800,5.595205810546875,39.23999786376953,51.959999084472656,-8.519999504089355
1695200961903204400,5.605204345703125,39.599998474121094,52.73999786376953,-8.399999618530273
1695200961913203200,5.615203125,40.2599983215332,52.68000030517578,-8.460000038146973
1695200961923202000,5.6252021484375,40.31999969482422,52.37999725341797,-8.699999809265137
1695200961933201200,5.635201171875,40.02000045776367,52.02000045776367,-8.819999694824219
1695200961943200000,5.645199951171875,39.89999771118164,51.71999740600586,-8.880000114440918
1695200962252523000,5.95452294921875,40.20000076293945,51.84000015258789,-10.559999465942383
1695200962262520800,5.964520751953125,40.79999923706055,51.89999771118164,-10.559999465942383
1695200962272520000,5.97452001953125,41.15999984741211,51.53999710083008,-10.979999542236328
1695200962282518300,5.984518310546875,40.68000030517578,51.29999923706055,-10.4399995803833
1695200962292516900,5.994516845703125,40.439998626708984,51.53999710083008,-10.380000114440918
1695200962302515500,6.004515380859375,40.07999801635742,51.65999984741211,-9.84000015258789
1695200962312514300,6.014514404296875,39.71999740600586,52.55999755859375,-9.59999942779541
1695200962322513200,6.02451318359375,39.89999771118164,52.439998626708984,-9.84000015258789
1695200962332512000,6.034511962890625,39.779998779296875,52.619998931884766,-9.719999313354492
1695200962342510800,6.0445107421875,39.47999954223633,52.55999755859375,-10.019999504089355
1695200962352509700,6.054509765625,39.71999740600586,52.31999969482422,-9.779999732971191
1695200962362508500,6.064508544921875,39.779998779296875,52.37999725341797,-10.079999923706055
1695200962372507100,6.074507080078125,39.65999984741211,52.73999786376953,-10.380000114440918
1695200962382506000,6.084506103515625,39.779998779296875,53.21999740600586,-10.380000114440918
1695200962392504800,6.0945048828125,39.959999084472656,52.79999923706055,-10.4399995803833
1695200962402503400,6.10450341796875,40.619998931884766,52.86000061035156,-10.679999351501465
1695200962412502300,6.114502197265625,41.15999984741211,52.55999755859375,-10.619999885559082
1695200962422501000,6.124501220703125,41.39999771118164,52.31999969482422,-10.380000114440918
1695200962432499700,6.134499755859375,40.86000061035156,52.68000030517578,-10.739999771118164
1695200962442498600,6.14449853515625,40.02000045776367,52.86000061035156,-10.079999923706055
1695200962452497400,6.154497314453125,39.71999740600586,52.86000061035156,-9.59999942779541
1695200962462496000,6.16449609375,39.18000030517578,52.73999786376953,-9.59999942779541
1695200962472494800,6.174494873046875,39.18000030517578,52.68000030517578,-9.420000076293945
1695200962482493700,6.18449365234375,39.779998779296875,52.619998931884766,-9.779999732971191
1695200962492492500,6.194492431640625,39.599998474121094,52.619998931884766,-10.260000228881836
1695200962502491100,6.2044912109375,40.02000045776367,52.5,-10.319999694824219
1695200962512490000,6.214489990234375,39.89999771118164,52.79999923706055,-10.079999923706055
1695200962522488600,6.224488525390625,39.84000015258789,53.279998779296875,-9.59999942779541
1695200962532487400,6.2344873046875,39.779998779296875,53.52000045776367,-9.65999984741211
1695200962542486000,6.244486083984375,40.13999938964844,53.69999694824219,-9.899999618530273
1695200962552484900,6.25448486328125,40.37999725341797,53.939998626708984,-9.719999313354492
1695200962562483700,6.264483642578125,40.31999969482422,53.459999084472656,-10.199999809265137
1695200962572482300,6.274482421875,40.2599983215332,53.03999710083008,-10.079999923706055
1695200962582481200,6.284481201171875,39.779998779296875,52.86000061035156,-9.960000038146973
1695200962592480000,6.29447998046875,39.41999816894531,52.13999938964844,-9.65999984741211
1695200962602478600,6.304478515625,39.05999755859375,51.89999771118164,-9.779999732971191
1695200962612477400,6.3144775390625,39.18000030517578,51.599998474121094,-9.779999732971191
1695200962622476000,6.32447607421875,39.47999954223633,51.959999084472656,-9.300000190734863
1695200962632475000,6.334474853515625,39.959999084472656,52.2599983215332,-9.539999961853027
1695200962642473500,6.344473388671875,40.07999801635742,52.619998931884766,-9.779999732971191
1695200962652472300,6.354472412109375,39.599998474121094,52.68000030517578,-9.779999732971191
1695200962662471000,6.364470947265625,39.23999786376953,52.619998931884766,-9.84000015258789
1695200962672469800,6.3744697265625,38.81999969482422,52.2599983215332,-9.779999732971191
1695200962682468400,6.38446826171875,38.81999969482422,52.37999725341797,-9.119999885559082
1695200962692467200,6.39446728515625,39.65999984741211,52.91999816894531,-9.239999771118164
1695200962702465800,6.4044658203125,39.65999984741211,52.97999954223633,-9.65999984741211
1695200962712464600,6.414464599609375,40.07999801635742,52.97999954223633,-9.960000038146973
1695200962722463500,6.42446337890625,40.07999801635742,52.619998931884766,-9.479999542236328
1695200962732462000,6.434462158203125,39.84000015258789,52.37999725341797,-8.9399995803833
1695200962742461000,6.4444609375,40.13999938964844,52.19999694824219,-9.119999885559082
1695200962752459800,6.454459716796875,40.31999969482422,52.2599983215332,-8.9399995803833
1695200962762458400,6.464458251953125,40.02000045776367,52.2599983215332,-9.65999984741211
1695200962772457200,6.474457275390625,39.959999084472656,51.89999771118164,-9.84000015258789
1695200962782455800,6.484455810546875,39.959999084472656,52.19999694824219,-9.539999961853027
1695200962792454700,6.49445458984375,39.89999771118164,52.02000045776367,-9.300000190734863
1695200962802453500,6.50445361328125,39.84000015258789,52.07999801635742,-8.579999923706055
1695200962812452000,6.5144521484375,39.71999740600586,52.19999694824219,-8.460000038146973
1695200962822451000,6.524450927734375,39.959999084472656,51.779998779296875,-8.699999809265137
1695200962832449500,6.534449462890625,39.599998474121094,52.19999694824219,-8.819999694824219
1695200962842448400,6.544448486328125,40.5,52.68000030517578,-9.239999771118164
1695200962852447200,6.554447265625,40.37999725341797,52.73999786376953,-8.9399995803833
1695200962862445800,6.56444580078125,39.47999954223633,53.21999740600586,-8.34000015258789
1695200962872444700,6.574444580078125,39.36000061035156,53.39999771118164,-8.34000015258789
1695200962882443500,6.584443603515625,38.52000045776367,52.86000061035156,-8.34000015258789
1695200962892442400,6.5944423828125,38.81999969482422,53.52000045776367,-8.699999809265137
1695200962902441000,6.60444091796875,39.47999954223633,53.34000015258789,-8.880000114440918
1695200962912439800,6.614439697265625,39.540000915527344,53.099998474121094,-9.119999885559082
1695200962922438400,6.6244384765625,39.71999740600586,53.15999984741211,-9.239999771118164
1695200962932437200,6.634437255859375,39.89999771118164,52.86000061035156,-9.539999961853027
1695200962942436000,6.64443603515625,39.84000015258789,52.79999923706055,-9.539999961853027
1695200962952435000,6.65443505859375,40.31999969482422,52.68000030517578,-9.359999656677246
1695200962962433800,6.664433837890625,40.31999969482422,52.79999923706055,-9.179999351501465
1695200962972433000,6.674432861328125,40.2599983215332,52.86000061035156,-9.059999465942383
1695200962982431700,6.684431640625,40.02000045776367,52.619998931884766,-9.119999885559082
1695200962992430800,6.694430908203125,40.02000045776367,52.68000030517578,-9.179999351501465
1695200963002429700,6.7044296875,40.31999969482422,52.619998931884766,-9.300000190734863
1695200963012428800,6.7144287109375,40.31999969482422,52.37999725341797,-9.119999885559082
1695200963022428000,6.724427978515625,40.37999725341797,52.97999954223633,-9
1695200963032427000,6.734427001953125,40.73999786376953,52.79999923706055,-9.359999656677246
1695200963042426000,6.744426025390625,40.5,53.099998474121094,-9.359999656677246
1695200963052425200,6.75442529296875,40.31999969482422,53.459999084472656,-9.119999885559082
1695200963062424300,6.76442431640625,40.55999755859375,53.099998474121094,-9.300000190734863
1695200963072423200,6.774423095703125,40.02000045776367,52.79999923706055,-8.9399995803833
1695200963082422300,6.78442236328125,40.619998931884766,52.439998626708984,-8.880000114440918
1695200963092421400,6.79442138671875,40.619998931884766,52.2599983215332,-9.119999885559082
1695200963102420500,6.80442041015625,40.73999786376953,52.2599983215332,-8.880000114440918
1695200963112419600,6.814419677734375,41.040000915527344,53.099998474121094,-8.34000015258789
1695200963122418700,6.824418701171875,40.97999954223633,53.52000045776367,-7.919999599456787
1695200963132417800,6.834417724609375,41.040000915527344,53.57999801635742,-8.279999732971191
1695200963142417000,6.8444169921875,40.79999923706055,53.459999084472656,-8.699999809265137
1695200963152416000,6.854416015625,40.37999725341797,53.52000045776367,-9
1695200963162415000,6.8644150390625,39.959999084472656,53.459999084472656,-9.359999656677246
1695200963172414200,6.874414306640625,39.959999084472656,53.69999694824219,-8.519999504089355
1695200963182413000,6.8844130859375,39.84000015258789,53.69999694824219,-8.279999732971191
1695200963192412200,6.894412109375,40.439998626708984,53.21999740600586,-8.15999984741211
1695200963202411300,6.904411376953125,40.5,52.619998931884766,-7.980000019073486
1695200963212410400,6.914410400390625,40.439998626708984,51.23999786376953,-8.519999504089355
1695200963222409500,6.924409423828125,40.73999786376953,50.52000045776367,-8.15999984741211
1695200963232408600,6.93440869140625,40.31999969482422,49.2599983215332,-8.220000267028809
1695200963242407700,6.94440771484375,40.07999801635742,48.65999984741211,-8.34000015258789
1695200963252406800,6.95440673828125,40.07999801635742,48.779998779296875,-7.739999771118164
1695200963262405600,6.964405517578125,39.71999740600586,48.65999984741211,-7.440000057220459
1695200963272404500,6.974404541015625,39.41999816894531,49.2599983215332,-7.559999942779541
1695200963282403300,6.9844033203125,39.89999771118164,48.779998779296875,-7.199999809265137
1695200963292402200,6.994402099609375,40.02000045776367,48.36000061035156,-7.440000057220459
1695200963302401000,7.004401123046875,40.31999969482422,48.53999710083008,-7.619999885559082
1695200963312400000,7.01439990234375,40.31999969482422,48.23999786376953,-6.899999618530273
1695200963322398500,7.0243984375,39.89999771118164,48.53999710083008,-6.779999732971191
1695200963332397300,7.034397216796875,39.84000015258789,48.84000015258789,-6.839999675750732
1695200963342396000,7.04439599609375,39.71999740600586,48.65999984741211,-6.659999847412109
1695200963352394800,7.054394775390625,40.5,48.47999954223633,-6.960000038146973
1695200963362393300,7.064393310546875,40.91999816894531,48.599998474121094,-7.019999980926514
1695200963372392200,7.07439208984375,40.91999816894531,48.89999771118164,-7.199999809265137
1695200963382391000,7.08439111328125,41.279998779296875,49.07999801635742,-7.619999885559082
1695200963392390000,7.094389892578125,41.21999740600586,49.2599983215332,-8.15999984741211
1695200963402388500,7.104388427734375,41.21999740600586,49.13999938964844,-8.039999961853027
1695200963412387300,7.11438720703125,41.70000076293945,49.55999755859375,-8.039999961853027
1695200963422386000,7.124385986328125,41.15999984741211,49.13999938964844,-7.619999885559082
1695200963432384800,7.134384765625,41.099998474121094,48.959999084472656,-7.019999980926514
1695200963442383600,7.144383544921875,40.68000030517578,48.89999771118164,-7.440000057220459
1695200963452382200,7.15438232421875,40.07999801635742,48.47999954223633,-6.899999618530273
1695200963462381000,7.164381103515625,40.55999755859375,48.41999816894531,-6.779999732971191
1695200963472380000,7.1743798828125,40.13999938964844,47.939998626708984,-7.019999980926514
1695200963482378500,7.18437841796875,40.55999755859375,47.81999969482422,-6.779999732971191
1695200963492377300,7.19437744140625,40.55999755859375,47.63999938964844,-7.199999809265137
1695200963502376200,7.204376220703125,40.02000045776367,47.459999084472656,-7.859999656677246
1695200963512374800,7.214374755859375,40.439998626708984,48.29999923706055,-7.799999713897705
1695200963522373600,7.22437353515625,40.439998626708984,48.71999740600586,-7.980000019073486
1695200963532372200,7.234372314453125,40.55999755859375,48.89999771118164,-8.039999961853027
1695200963542371000,7.24437109375,40.73999786376953,49.439998626708984,-7.319999694824219
1695200963552369700,7.25436962890625,40.31999969482422,49.37999725341797,-7.259999752044678
1695200963562368500,7.264368408203125,40.2599983215332,49.02000045776367,-6.839999675750732
1695200963572367400,7.274367431640625,40.5,48.36000061035156,-6.71999979019165
1695200963582366000,7.284365966796875,40.31999969482422,48.05999755859375,-7.139999866485596
1695200963592364800,7.29436474609375,40.79999923706055,48.29999923706055,-6.599999904632568
1695200963602363600,7.30436376953125,40.73999786376953,48.23999786376953,-6.899999618530273
1695200963612362200,7.3143623046875,40.619998931884766,48.599998474121094,-6.779999732971191
1695200963622361000,7.324361083984375,41.099998474121094,48.84000015258789,-6.599999904632568
1695200963632360000,7.33435986328125,40.55999755859375,48.65999984741211,-6.71999979019165
1695200963642358500,7.344358642578125,40.37999725341797,48.89999771118164,-5.940000057220459
1695200963652357400,7.354357421875,40.73999786376953,49.439998626708984,-5.639999866485596
1695200963662356000,7.36435595703125,40.68000030517578,49.37999725341797,-5.460000038146973
1695200963672354800,7.374354736328125,41.099998474121094,49.2599983215332,-6.119999885559082
1695200963682353400,7.384353515625,41.15999984741211,49.07999801635742,-6.179999828338623
1695200963692352300,7.394352294921875,39.959999084472656,48.84000015258789,-6.599999904632568
1695200963702350800,7.404350830078125,39.47999954223633,48.89999771118164,-7.019999980926514
1695200963712349700,7.414349609375,39.18000030517578,48.84000015258789,-6.960000038146973
1695200963722348300,7.424348388671875,39.540000915527344,49.2599983215332,-7.139999866485596
1695200963732347100,7.43434716796875,40.55999755859375,48.29999923706055,-6.71999979019165
1695200963742345700,7.444345703125,41.099998474121094,48.41999816894531,-6.420000076293945
1695200963752344600,7.454344482421875,41.52000045776367,48.23999786376953,-5.940000057220459
1695200963762343200,7.46434326171875,41.279998779296875,47.939998626708984,-6.119999885559082
1695200963772342000,7.474342041015625,40.79999923706055,48.47999954223633,-6.539999961853027
1695200963782340900,7.4843408203125,40.439998626708984,48.29999923706055,-6.71999979019165
1695200963792339500,7.49433935546875,39.959999084472656,48.599998474121094,-7.319999694824219
1695200963802338300,7.50433837890625,39.540000915527344,48.71999740600586,-7.259999752044678
1695200963812337000,7.5143369140625,39.84000015258789,48.65999984741211,-7.079999923706055
1695200963822335700,7.524335693359375,39.89999771118164,48.53999710083008,-6.359999656677246
1695200963832334300,7.534334228515625,39.89999771118164,48.599998474121094,-5.460000038146973
1695200963842333200,7.544333251953125,40.07999801635742,48.599998474121094,-5.579999923706055
1695200963852332000,7.55433203125,39.599998474121094,48.89999771118164,-5.099999904632568
1695200963862330600,7.56433056640625,39.540000915527344,49.13999938964844,-5.21999979019165
1695200963872329500,7.57432958984375,39.71999740600586,49.07999801635742,-5.819999694824219
1695200963882328300,7.584328369140625,40.20000076293945,48.84000015258789,-5.339999675750732
1695200963892327000,7.594326904296875,40.86000061035156,48.41999816894531,-5.460000038146973
1695200963902325800,7.60432568359375,40.79999923706055,48.23999786376953,-5.699999809265137
1695200963912324400,7.614324462890625,40.91999816894531,48.05999755859375,-5.819999694824219
1695200963922323200,7.6243232421875,40.55999755859375,48.23999786376953,-6.359999656677246
1695200963932322000,7.634322021484375,40.91999816894531,48.779998779296875,-6.420000076293945
1695200963942320600,7.644320556640625,41.39999771118164,48.84000015258789,-6.599999904632568
1695200963952319500,7.654319580078125,41.459999084472656,49.07999801635742,-6.299999713897705
1695200963962318300,7.664318359375,41.099998474121094,48.89999771118164,-6
1695200963972317000,7.67431689453125,40.91999816894531,48.89999771118164,-6.059999942779541
1695200963982315800,7.684315673828125,40.619998931884766,48.71999740600586,-6.179999828338623
1695200963992314600,7.694314697265625,40.2599983215332,48.959999084472656,-6.71999979019165
1695200964002313200,7.704313232421875,40.91999816894531,49.97999954223633,-7.079999923706055
1695200964012312000,7.71431201171875,40.55999755859375,50.279998779296875,-7.679999828338623
1695200964022310700,7.724310546875,40.31999969482422,50.87999725341797,-7.919999599456787
1695200964032309500,7.7343095703125,40.73999786376953,51.29999923706055,-7.980000019073486
1695200964042308400,7.744308349609375,40.2599983215332,50.87999725341797,-7.799999713897705
1695200964052307200,7.75430712890625,40.31999969482422,51.23999786376953,-7.739999771118164
1695200964062306300,7.764306396484375,40.55999755859375,51.23999786376953,-7.319999694824219
1695200964072305200,7.77430517578125,40.5,51,-7.199999809265137
1695200964082304000,7.784303955078125,40.68000030517578,51.05999755859375,-7.679999828338623
1695200964092303000,7.79430322265625,40.68000030517578,50.939998626708984,-7.679999828338623
1695200964102302000,7.804302001953125,41.099998474121094,51.36000061035156,-8.34000015258789
1695200964112301000,7.814301025390625,40.5,51.41999816894531,-8.220000267028809
1695200964122300200,7.824300048828125,40.79999923706055,51.47999954223633,-8.279999732971191
1695200964132299300,7.83429931640625,40.37999725341797,51,-7.980000019073486
1695200964142298400,7.84429833984375,39.540000915527344,50.81999969482422,-7.679999828338623
1695200964152297500,7.85429736328125,39.71999740600586,50.57999801635742,-7.859999656677246
1695200964162296300,7.86429638671875,39.23999786376953,51,-7.619999885559082
1695200964172295400,7.87429541015625,40.02000045776367,51.599998474121094,-7.679999828338623
1695200964182294500,7.88429443359375,40.2599983215332,51.47999954223633,-7.259999752044678
1695200964192293600,7.894293701171875,40.439998626708984,52.2599983215332,-7.019999980926514
1695200964202292700,7.904292724609375,40.619998931884766,52.19999694824219,-7.199999809265137
1695200964212291600,7.91429150390625,40.619998931884766,52.19999694824219,-7.259999752044678
1695200964222290700,7.924290771484375,40.37999725341797,52.19999694824219,-7.559999942779541
1695200964232289800,7.934289794921875,40.5,52.55999755859375,-7.980000019073486
1695200964242289000,7.944288818359375,40.619998931884766,52.68000030517578,-7.980000019073486
1695200964252288000,7.9542880859375,40.2599983215332,53.21999740600586,-7.980000019073486
1695200964262287000,7.964287109375,40.5,53.279998779296875,-8.460000038146973
1695200964272286000,7.974285888671875,40.07999801635742,53.21999740600586,-8.220000267028809
1695200964282285000,7.98428515625,40.439998626708984,53.34000015258789,-7.799999713897705
1695200964292284200,7.9942841796875,40.5,52.91999816894531,-8.09999942779541
1695200964302283300,8.004283203125,40.55999755859375,53.34000015258789,-7.619999885559082
1695200964312282400,8.014282470703124,40.5,52.91999816894531,-7.559999942779541
1695200964322281200,8.02428125,40.20000076293945,52.79999923706055,-7.619999885559082
1695200964332280300,8.0342802734375,40.07999801635742,52.97999954223633,-7.919999599456787
1695200964342279200,8.044279052734375,39.779998779296875,53.15999984741211,-8.220000267028809
1695200964352278300,8.0542783203125,40.2599983215332,53.57999801635742,-7.859999656677246
1695200964362277000,8.064277099609376,39.65999984741211,53.279998779296875,-7.919999599456787
1695200964372276000,8.07427587890625,40.20000076293945,53.279998779296875,-7.37999963760376
1695200964382274800,8.08427490234375,40.619998931884766,53.15999984741211,-7.199999809265137
1695200964392273700,8.094273681640624,40.13999938964844,52.68000030517578,-7.679999828338623
1695200964402272300,8.104272216796875,40.619998931884766,52.97999954223633,-7.799999713897705
1695200964412271000,8.11427099609375,40.31999969482422,53.21999740600586,-7.799999713897705
1695200964422269700,8.124269775390625,40.20000076293945,52.91999816894531,-7.739999771118164
1695200964432268500,8.1342685546875,40.37999725341797,53.099998474121094,-7.559999942779541
1695200964442267100,8.14426708984375,40.20000076293945,52.619998931884766,-7.5
1695200964452266000,8.154265869140625,39.89999771118164,52.19999694824219,-7.679999828338623
1695200964462264600,8.1642646484375,39.71999740600586,52.68000030517578,-7.199999809265137
1695200964472263400,8.174263427734376,39.84000015258789,52.439998626708984,-7.559999942779541
1695200964482262300,8.18426220703125,39.959999084472656,52.73999786376953,-7.799999713897705
1695200964492260900,8.1942607421875,40.13999938964844,52.86000061035156,-7.679999828338623
1695200964502259700,8.204259765625,40.55999755859375,52.55999755859375,-8.460000038146973
1695200964512258300,8.21425830078125,40.13999938964844,52.97999954223633,-8.460000038146973
1695200964522257200,8.224257080078125,39.959999084472656,53.15999984741211,-8.15999984741211
1695200964532256000,8.234256103515625,40.02000045776367,53.279998779296875,-8.399999618530273
1695200964542254600,8.244254638671874,39.959999084472656,53.34000015258789,-7.859999656677246
1695200964552253400,8.25425341796875,40.20000076293945,53.57999801635742,-7.440000057220459
1695200964562252000,8.264251953125,40.5,53.459999084472656,-7.619999885559082
1695200964572251000,8.2742509765625,39.959999084472656,53.34000015258789,-7.679999828338623
1695200964582249700,8.284249755859374,39.65999984741211,53.21999740600586,-7.799999713897705
1695200964592248300,8.294248291015625,39.779998779296875,52.86000061035156,-7.799999713897705
1695200964602247200,8.3042470703125,39.47999954223633,52.86000061035156,-7.619999885559082
1695200964612246000,8.31424609375,40.02000045776367,52.97999954223633,-7.319999694824219
1695200964622244600,8.32424462890625,40.02000045776367,53.39999771118164,-7.319999694824219
1695200964632243500,8.334243408203125,40.86000061035156,53.63999938964844,-7.5
1695200964642242300,8.3442421875,40.79999923706055,53.939998626708984,-7.679999828338623
1695200964652241000,8.354240966796874,40.37999725341797,53.69999694824219,-7.859999656677246
1695200964662239700,8.36423974609375,40.31999969482422,53.57999801635742,-7.799999713897705
1695200964672238300,8.37423828125,39.36000061035156,53.15999984741211,-7.739999771118164
1695200964682237200,8.3842373046875,39.41999816894531,52.619998931884766,-7.679999828338623
1695200964692236000,8.394236083984374,39.65999984741211,52.5,-7.679999828338623
1695200964702234600,8.404234619140626,39.779998779296875,52.619998931884766,-7.980000019073486
1695200964712233500,8.4142333984375,39.84000015258789,53.099998474121094,-7.980000019073486
1695200964722232000,8.424232177734375,39.71999740600586,53.099998474121094,-8.09999942779541
1695200964732231000,8.43423095703125,39.540000915527344,53.03999710083008,-7.919999599456787
1695200964742229800,8.444229736328126,39.89999771118164,52.86000061035156,-7.679999828338623
1695200964752228400,8.454228271484375,39.84000015258789,52.55999755859375,-7.859999656677246
1695200964762227200,8.464227294921875,39.959999084472656,52.55999755859375,-7.980000019073486
1695200964772226000,8.47422607421875,39.779998779296875,52.79999923706055,-8.039999961853027
1695200964782224600,8.484224609375,39.599998474121094,52.37999725341797,-8.279999732971191
1695200964792223200,8.49422314453125,40.07999801635742,51.84000015258789,-8.399999618530273
1695200964802222000,8.50422216796875,40.02000045776367,52.19999694824219,-8.639999389648438
1695200964812220700,8.514220703125,40.73999786376953,52.37999725341797,-8.579999923706055
1695200964822219500,8.524219482421875,40.20000076293945,52.31999969482422,-8.34000015258789
1695200964832218000,8.534218017578125,39.84000015258789,52.68000030517578,-7.559999942779541
1695200964842217000,8.544217041015624,40.02000045776367,53.03999710083008,-7.019999980926514
1695200964852215600,8.554215576171876,39.89999771118164,53.57999801635742,-7.440000057220459
1695200964862214400,8.56421435546875,40.439998626708984,53.63999938964844,-7.619999885559082
1695200964872213000,8.574212890625,40.619998931884766,54.36000061035156,-7.980000019073486
1695200964882211800,8.5842119140625,40.439998626708984,54.29999923706055,-8.460000038146973
1695200964892210700,8.594210693359376,40.02000045776367,53.459999084472656,-8.15999984741211
1695200964902209300,8.604209228515625,39.71999740600586,53.57999801635742,-7.859999656677246
1695200964912208100,8.6142080078125,39.29999923706055,52.79999923706055,-7.980000019073486
1695200964922206700,8.624206787109374,39.540000915527344,52.55999755859375,-7.5
1695200964932205600,8.63420556640625,39.71999740600586,53.34000015258789,-7.440000057220459
1695200964942204200,8.6442041015625,39.89999771118164,53.57999801635742,-7.5
1695200964952203000,8.654203125,39.779998779296875,54,-7.37999963760376
1695200964962201900,8.664201904296876,39.779998779296875,53.81999969482422,-7.37999963760376
1695200964972200400,8.674200439453125,39.84000015258789,53.459999084472656,-7.139999866485596
1695200964982199300,8.68419921875,39.959999084472656,53.279998779296875,-6.960000038146973
1695200964992198100,8.6941982421875,40.73999786376953,53.15999984741211,-7.019999980926514
1695200965002196700,8.70419677734375,40.73999786376953,53.34000015258789,-6.779999732971191
1695200965012195600,8.714195556640625,40.37999725341797,53.34000015258789,-6.659999847412109
1695200965022194400,8.7241943359375,40.31999969482422,53.459999084472656,-6.779999732971191
1695200965032193000,8.734193115234374,39.71999740600586,53.7599983215332,-6.659999847412109
1695200965042192000,8.74419189453125,39.65999984741211,53.69999694824219,-7.019999980926514
1695200965052190500,8.7541904296875,40.02000045776367,53.63999938964844,-7.559999942779541
1695200965062189300,8.764189208984375,39.89999771118164,53.57999801635742,-7.319999694824219
1695200965072188000,8.77418798828125,39.89999771118164,53.459999084472656,-7.619999885559082
1695200965082186800,8.784186767578126,40.02000045776367,53.21999740600586,-7.619999885559082
1695200965092185600,8.794185546875,39.65999984741211,53.7599983215332,-7.199999809265137
1695200965102184400,8.804184326171875,39.41999816894531,53.81999969482422,-7.199999809265137
1695200965112183000,8.81418310546875,39.599998474121094,53.52000045776367,-7.319999694824219
1695200965122182000,8.824181884765625,39.65999984741211,53.7599983215332,-7.319999694824219
1695200965132180700,8.8341806640625,40.02000045776367,53.279998779296875,-7.739999771118164
1695200965142179600,8.8441796875,40.2599983215332,53.279998779296875,-7.980000019073486
1695200965152178400,8.854178466796874,40.13999938964844,53.21999740600586,-8.039999961853027
1695200965162177300,8.86417724609375,39.65999984741211,53.21999740600586,-7.559999942779541
1695200965172176100,8.874176025390625,39.599998474121094,53.34000015258789,-7.259999752044678
1695200965182175000,8.884175048828125,39.779998779296875,53.03999710083008,-7.199999809265137
1695200965192173800,8.894173828125,39.959999084472656,53.21999740600586,-6.239999771118164
1695200965202172700,8.904172607421875,40.13999938964844,53.03999710083008,-6.299999713897705
1695200965212171500,8.914171630859375,39.959999084472656,53.15999984741211,-6.299999713897705
1695200965222170400,8.92417041015625,40.13999938964844,53.34000015258789,-5.940000057220459
1695200965232169200,8.934169189453126,40.07999801635742,53.81999969482422,-6.239999771118164
1695200965242168000,8.94416796875,39.89999771118164,54.18000030517578,-6.059999942779541
1695200965252167000,8.9541669921875,40.07999801635742,53.939998626708984,-5.87999963760376
1695200965551997000,9.253996826171875,39,53.63999938964844,-4.679999828338623
1695200965561995000,9.2639951171875,39.119998931884766,54,-4.199999809265137
1695200965571992800,9.273992919921875,39.779998779296875,54.05999755859375,-4.440000057220459
1695200965581991700,9.28399169921875,39.89999771118164,54.47999954223633,-4.559999942779541
1695200965591990000,9.293989990234374,40.02000045776367,54.36000061035156,-4.380000114440918
1695200965601988900,9.30398876953125,40.2599983215332,53.87999725341797,-4.319999694824219
1695200965611987500,9.313987548828125,40.2599983215332,53.459999084472656,-4.319999694824219
1695200965621986000,9.323986083984375,39.89999771118164,53.279998779296875,-4.199999809265137
1695200965631985000,9.33398486328125,39.89999771118164,53.459999084472656,-4.199999809265137
1695200965641983500,9.3439833984375,40.20000076293945,53.69999694824219,-3.8399999141693115
1695200965651982000,9.353982177734375,39.959999084472656,53.87999725341797,-4.019999980926514
1695200965661981000,9.36398095703125,40.13999938964844,54.05999755859375,-3.8999998569488525
1695200965671979500,9.3739794921875,39.959999084472656,54.18000030517578,-3.8399999141693115
1695200965681978000,9.38397802734375,39.540000915527344,54,-3.9599997997283936
1695200965691977000,9.39397705078125,40.07999801635742,54.53999710083008,-3.4800000190734863
1695200965701975600,9.4039755859375,40.20000076293945,54.65999984741211,-3.359999895095825
1695200965711974400,9.413974365234376,40.31999969482422,54.18000030517578,-3.8399999141693115
1695200965721973000,9.423972900390625,40.55999755859375,54.119998931884766,-4.380000114440918
1695200965731971600,9.4339716796875,40.13999938964844,53.87999725341797,-4.799999713897705
1695200965741970400,9.443970458984374,40.07999801635742,53.52000045776367,-5.21999979019165
1695200965751969000,9.453968994140626,39.959999084472656,53.939998626708984,-4.679999828338623
1695200965761967900,9.4639677734375,40.07999801635742,53.39999771118164,-4.079999923706055
1695200965771966500,9.473966552734375,40.55999755859375,52.91999816894531,-3.8999998569488525
1695200965781965300,9.48396533203125,40.31999969482422,52.79999923706055,-3.7200000286102295
1695200965791964000,9.4939638671875,40.439998626708984,52.55999755859375,-4.019999980926514
1695200965801962500,9.50396240234375,40.13999938964844,53.459999084472656,-4.559999942779541
1695200965811961300,9.51396142578125,39.779998779296875,53.69999694824219,-4.319999694824219
1695200965821960000,9.5239599609375,39.84000015258789,53.52000045776367,-4.199999809265137
1695200971096647200,14.798647216796875,12.84000015258789,94.86000061035156,21.899999618530273
1695200971106647000,14.80864697265625,12.84000015258789,94.97999572753906,21.719999313354492
1695200971116646100,14.818646240234376,13.079999923706055,95.63999938964844,21.84000015258789
1695200971126644700,14.828644775390625,13.4399995803833,95.63999938964844,22.020000457763672
1695200971136643300,14.838643310546875,13.319999694824219,95.81999969482422,21.779998779296875
1695200971146642200,14.84864208984375,13.4399995803833,96,21.779998779296875
1695200971156640800,14.858640869140626,13.5,95.57999420166016,21.239999771118164
1695200971166639600,14.8686396484375,13.619999885559082,95.93999481201172,21.059999465942383
1695200971176638500,14.878638427734375,13.859999656677246,95.69999694824219,21.420000076293945
1695200971186637300,14.88863720703125,14.039999961853027,95.57999420166016,21.35999870300293
1695200971196636200,14.89863623046875,13.4399995803833,95.57999420166016,21.65999984741211
1695200971206634800,14.908634765625,12.719999313354492,95.0999984741211,21.299999237060547
1695200971216633600,14.918633544921875,12.059999465942383,95.27999877929688,20.520000457763672
1695200971226632400,14.928632568359374,12.059999465942383,95.75999450683594,20.520000457763672
1695200971236631000,14.938631103515625,12.119999885559082,95.5199966430664,20.579999923706055
1695200971246630000,14.9486298828125,12.179999351501465,96.05999755859375,20.939998626708984
1695200971256628700,14.958628662109374,12.779999732971191,96,21.35999870300293
1695200971266627300,14.96862744140625,12.84000015258789,95.15999603271484,21.239999771118164
1695200971276626200,14.978626220703125,13.199999809265137,95.5199966430664,20.939998626708984
1695200971286625000,14.988625,12.779999732971191,94.68000030517578,20.8799991607666
1695200971296623600,14.99862353515625,12.420000076293945,94.37999725341797,20.939998626708984
1695200971306622500,15.00862255859375,12.119999885559082,94.73999786376953,20.69999885559082
1695200971316621000,15.01862109375,12.119999885559082,94.31999969482422,21.119998931884766
1695200971326620000,15.028619873046875,12.479999542236328,94.43999481201172,21.53999900817871
1695200971336618500,15.038618408203124,12.719999313354492,94.97999572753906,21.959999084472656
1695200971346617300,15.048617431640626,12.84000015258789,94.97999572753906,22.19999885559082
1695200971356616200,15.0586162109375,13.019999504089355,94.86000061035156,22.020000457763672
1695200971366614800,15.06861474609375,13.25999927520752,94.97999572753906,22.020000457763672
1695200971376613600,15.078613525390624,12.960000038146973,94.5,21.84000015258789
1695200971386612200,15.0886123046875,12.719999313354492,94.31999969482422,21.84000015258789
1695200971396611000,15.098611083984375,12.179999351501465,94.25999450683594,21.600000381469727
1695200971406609700,15.108609619140625,12,94.5,21.119998931884766
1695200971416608500,15.1186083984375,12,94.79999542236328,20.939998626708984
1695200971426607400,15.128607421875,11.9399995803833,94.6199951171875,21.35999870300293
1695200971436606200,15.138606201171875,12.65999984741211,95.04000091552734,21.600000381469727
1695200971446604800,15.148604736328124,12.779999732971191,94.73999786376953,21.84000015258789
1695200971456603600,15.158603759765626,12.479999542236328,94.6199951171875,22.139999389648438
1695200971466602500,15.1686025390625,12.479999542236328,94.79999542236328,21.779998779296875
1695200971476601000,15.17860107421875,11.639999389648438,94.07999420166016,21.479999542236328
1695200971486600000,15.188599853515624,11.880000114440918,94.19999694824219,21.779998779296875
1695200971496598500,15.1985986328125,11.819999694824219,93.95999908447266,21.84000015258789
1695200971506597400,15.208597412109375,12.119999885559082,94.07999420166016,22.31999969482422
1695200971516596000,15.218595947265625,12.359999656677246,94.6199951171875,22.68000030517578
1695200971526594800,15.2285947265625,12.179999351501465,95.27999877929688,22.920000076293945
1695200971536593700,15.23859375,11.880000114440918,95.27999877929688,23.03999900817871
1695200971546592300,15.24859228515625,11.399999618530273,95.15999603271484,22.739999771118164
1695200971556591000,15.258591064453125,11.039999961853027,95.27999877929688,22.68000030517578
1695200971566590000,15.26858984375,10.739999771118164,94.6199951171875,22.5
1695200971576588500,15.278588623046875,11.399999618530273,94.91999816894531,22.31999969482422
1695200971586587400,15.28858740234375,11.699999809265137,94.97999572753906,22.799999237060547
1695200971596586200,15.298586181640625,11.819999694824219,94.97999572753906,22.5
1695200971606584800,15.308584716796876,11.699999809265137,95.5199966430664,22.439998626708984
1695200971616583700,15.318583740234375,11.09999942779541,95.45999908447266,21.899999618530273
1695200971626582300,15.328582275390625,10.5,95.5199966430664,21.65999984741211
1695200971636581000,15.3385810546875,10.800000190734863,95.87999725341797,21.899999618530273
1695200971646580000,15.348580078125,10.739999771118164,95.63999938964844,21.779998779296875
1695200971656578600,15.35857861328125,10.800000190734863,95.69999694824219,22.739999771118164
1695200971666577400,15.368577392578125,11.09999942779541,95.81999969482422,23.399999618530273
1695200971676576300,15.378576171875,10.679999351501465,95.4000015258789,23.51999855041504
1695200971686575400,15.388575439453126,10.4399995803833,95.33999633789062,23.760000228881836
1695200971696574200,15.39857421875,10.859999656677246,95.69999694824219,23.760000228881836
1695200971706573300,15.4085732421875,10.679999351501465,95.63999938964844,23.279998779296875
1695200971716572200,15.418572265625,10.380000114440918,95.33999633789062,23.399999618530273
1695200971726571300,15.4285712890625,9.84000015258789,94.91999816894531,23.34000015258789
1695200971736570000,15.438570068359375,8.9399995803833,94.19999694824219,23.15999984741211
1695200971746569200,15.4485693359375,8.399999618530273,93.72000122070312,23.34000015258789
1695200971756568300,15.458568359375,8.579999923706055,94.07999420166016,23.51999855041504
1695200971766567400,15.4685673828125,8.639999389648438,94.55999755859375,23.51999855041504
1695200971776566300,15.478566162109376,9.059999465942383,95.33999633789062,23.279998779296875
1695200971786565400,15.4885654296875,9.84000015258789,96,23.34000015258789
1695200971796564500,15.498564453125,9.65999984741211,96,23.399999618530273
1695200971806563600,15.5085634765625,10.079999923706055,95.69999694824219,23.639999389648438
1695200971816562700,15.518562744140626,9.960000038146973,95.63999938964844,23.81999969482422
1695200971826561500,15.5285615234375,9.539999961853027,95.27999877929688,23.639999389648438
1695200971836560600,15.538560546875,9.300000190734863,95.5199966430664,23.579999923706055
1695200971846559700,15.548559814453125,9.59999942779541,95.45999908447266,23.81999969482422
1695200971856558800,15.558558837890626,9.779999732971191,95.15999603271484,23.34000015258789
1695200971866558000,15.568557861328125,9.719999313354492,95.5199966430664,23.579999923706055
1695200971876556800,15.578556884765625,9.84000015258789,94.91999816894531,24.059999465942383
1695200971886556000,15.588555908203125,9.539999961853027,94.86000061035156,24.18000030517578
1695200971896555000,15.598554931640624,9.179999351501465,94.79999542236328,25.01999855041504
1695200971906554000,15.60855419921875,9.179999351501465,94.5,25.260000228881836
1695200971916553200,15.61855322265625,9.300000190734863,94.5,25.19999885559082
1695200971926552000,15.628552001953125,9,94.31999969482422,24.779998779296875
1695200971936551200,15.63855126953125,8.699999809265137,94.37999725341797,24.84000015258789
1695200971946550300,15.64855029296875,8.399999618530273,94.37999725341797,24.779998779296875
1695200971956549400,15.65854931640625,8.15999984741211,94.68000030517578,24.84000015258789
1695200971966548500,15.668548583984375,8.519999504089355,95.04000091552734,25.31999969482422
1695200971976547300,15.67854736328125,9.179999351501465,94.86000061035156,24.899999618530273
1695200971986546200,15.688546142578126,9.420000076293945,94.91999816894531,24.719999313354492
1695200971996545000,15.698544921875,9.84000015258789,94.79999542236328,25.31999969482422
1695200972006544000,15.7085439453125,9.65999984741211,94.5,25.3799991607666
1695200972016542700,15.718542724609375,9.239999771118164,94.6199951171875,25.739999771118164
1695200972026541300,15.728541259765626,9.479999542236328,94.37999725341797,25.920000076293945
1695200972036540200,15.7385400390625,9.300000190734863,94.13999938964844,26.03999900817871
1695200972046539000,15.7485390625,9.539999961853027,94.43999481201172,26.459999084472656
1695200972056537600,15.75853759765625,9.84000015258789,94.5,26.579999923706055
1695200972066536400,15.768536376953126,9.719999313354492,94.43999481201172,26.579999923706055
1695200972076535000,15.77853515625,10.199999809265137,95.04000091552734,26.15999984741211
1695200972086534000,15.788533935546875,10.199999809265137,94.68000030517578,26.279998779296875
1695200972096532500,15.798532470703124,10.079999923706055,94.07999420166016,26.81999969482422
1695200972106531300,15.80853125,10.619999885559082,94.07999420166016,27.479999542236328
1695200972116530000,15.818530029296875,10.4399995803833,93.65999603271484,27.959999084472656
1695200972126528800,15.82852880859375,10.199999809265137,93.05999755859375,27.65999984741211
1695200972136527400,15.83852734375,10.5,93.65999603271484,27.53999900817871
1695200972146526200,15.848526123046875,10.199999809265137,93.23999786376953,27.059999465942383
1695200972156525000,15.858525146484375,10.019999504089355,92.81999969482422,26.69999885559082
1695200972166523600,15.868523681640625,10.380000114440918,93.65999603271484,26.760000228881836
1695200972176522500,15.8785224609375,10.260000228881836,93.23999786376953,27.35999870300293
1695200972186521300,15.888521240234375,10.559999465942383,93.77999877929688,28.3799991607666
1695200972196520000,15.89852001953125,11.039999961853027,94.31999969482422,29.15999984741211
1695200972206518800,15.908518798828124,11.34000015258789,93.5999984741211,29.15999984741211
1695200972216517600,15.918517578125,11.639999389648438,93.65999603271484,28.739999771118164
1695200972226516200,15.92851611328125,11.639999389648438,93.23999786376953,28.439998626708984
1695200973546654000,17.248654052734373,-4.199999809265137,58.8599967956543,-0.17999999225139618
1695200973556651800,17.25865185546875,-4.139999866485596,59.099998474121094,0.05999999865889549
1695200973566649900,17.26864990234375,-3.5999999046325684,58.91999816894531,0.05999999865889549
1695200973576648400,17.2786484375,-3.5999999046325684,59.03999710083008,0.41999998688697815
1695200973586647000,17.28864697265625,-3.5999999046325684,58.619998931884766,0.8999999761581421
1695200973596645400,17.298645263671876,-3.299999952316284,58.31999969482422,1.0799999237060547
1695200973606644200,17.308644287109374,-3.5999999046325684,57.89999771118164,0.7199999690055847
1695200973616642600,17.318642578125,-3.8999998569488525,57.41999816894531,0.35999998450279236
1695200973626641200,17.32864111328125,-3.8999998569488525,57.05999755859375,-0.35999998450279236
1695200973636639700,17.3386396484375,-4.319999694824219,57.65999984741211,0
1695200973646638300,17.348638427734375,-4.440000057220459,57.29999923706055,0.11999999731779099
1695200973656637200,17.35863720703125,-3.9599997997283936,56.34000015258789,0.05999999865889549
1695200973666635800,17.3686357421875,-4.079999923706055,56.57999801635742,0.23999999463558197
1695200973676634400,17.37863427734375,-4.139999866485596,56.21999740600586,-0.5399999618530273
1695200973686633200,17.38863330078125,-4.5,56.459999084472656,0.29999998211860657
1695200973696631800,17.3986318359375,-4.859999656677246,56.81999969482422,0.41999998688697815
1695200973706630400,17.40863037109375,-4.920000076293945,56.7599983215332,0.8999999761581421
1695200973716629200,17.418629150390625,-4.739999771118164,56.39999771118164,0.8399999737739563
1695200973726627800,17.4286279296875,-4.559999942779541,56.939998626708984,0.6599999666213989
1695200973736626400,17.43862646484375,-4.559999942779541,57.71999740600586,0.17999999225139618
1695200973746625300,17.448625244140626,-4.380000114440918,57.41999816894531,0.11999999731779099
1695200973756624000,17.458623779296875,-4.619999885559082,57.599998474121094,0.8999999761581421
1695200973766622500,17.46862255859375,-4.380000114440918,57.23999786376953,0.5999999642372131
1695200973776621300,17.478621337890626,-4.679999828338623,56.69999694824219,1.3799999952316284
1695200973786620200,17.4886201171875,-4.319999694824219,56.939998626708984,1.4399999380111694
1695200973796619000,17.498618896484373,-4.380000114440918,56.69999694824219,1.0799999237060547
1695200973806617900,17.508617919921875,-4.440000057220459,56.57999801635742,0.9599999785423279
1695200973816616700,17.51861669921875,-4.019999980926514,56.7599983215332,0.5399999618530273
1695200973826615800,17.52861572265625,-4.559999942779541,56.63999938964844,0.23999999463558197
1695200973836614700,17.53861474609375,-4.259999752044678,57.41999816894531,-0.05999999865889549
1695200973846613800,17.54861376953125,-4.739999771118164,57.84000015258789,0
1695200973856612900,17.55861279296875,-5.099999904632568,58.439998626708984,0.23999999463558197
1695200973866612000,17.568612060546876,-5.579999923706055,58.97999954223633,0.29999998211860657
1695200973876610800,17.57861083984375,-5.699999809265137,58.8599967956543,0.5999999642372131
1695200973886610000,17.58860986328125,-5.699999809265137,58.97999954223633,0.7199999690055847
1695200973896609000,17.598609130859376,-5.759999752044678,58.97999954223633,0.6599999666213989
1695200973906608000,17.608608154296874,-5.519999980926514,59.03999710083008,0.8999999761581421
1695200973916607200,17.618607177734376,-5.87999963760376,58.79999923706055,0.8999999761581421
1695200973926606000,17.628606201171873,-5.759999752044678,58.5,0.8399999737739563
1695200973936605200,17.638605224609375,-5.940000057220459,58.73999786376953,1.1999999284744263
1695200973946604300,17.648604248046876,-5.759999752044678,58.37999725341797,0.9599999785423279
1695200973956603400,17.658603271484374,-6,58.13999938964844,0.7199999690055847
1695200973966602500,17.6686025390625,-6.119999885559082,58.31999969482422,0.41999998688697815
1695200973976601300,17.678601318359377,-6.059999942779541,58.07999801635742,0.29999998211860657
1695200973986600400,17.688600341796874,-6.480000019073486,58.37999725341797,0.5399999618530273
1695200973996599600,17.698599609375,-6.299999713897705,58.439998626708984,0.9599999785423279
1695200974006598700,17.7085986328125,-6.359999656677246,58.619998931884766,1.2599999904632568
1695200974016597500,17.718597412109375,-6.179999828338623,58.31999969482422,1.0799999237060547
1695200974026596600,17.7285966796875,-5.639999866485596,58.31999969482422,1.0799999237060547
1695200974036595700,17.738595703125,-5.759999752044678,58.37999725341797,0.6599999666213989
1695200974046594800,17.7485947265625,-6.059999942779541,58.13999938964844,1.0799999237060547
1695200974056594000,17.758593994140625,-6.239999771118164,58.5,1.1999999284744263
1695200974066592800,17.7685927734375,-6.299999713897705,58.2599983215332,1.4399999380111694
1695200974076591900,17.778591796875,-6.359999656677246,58.37999725341797,1.559999942779541
1695200974086591000,17.788591064453126,-6.239999771118164,58.8599967956543,1.559999942779541
1695200974096589800,17.79858984375,-5.940000057220459,58.8599967956543,1.5
1695200974106588700,17.808588623046877,-5.759999752044678,59.279998779296875,1.1399999856948853
1695200974116587500,17.81858740234375,-5.699999809265137,59.15999984741211,1.3199999332427979
1695200974126586000,17.828586181640624,-5.699999809265137,58.68000030517578,0.7799999713897705
1695200974136585000,17.8385849609375,-6.059999942779541,58.619998931884766,0.35999998450279236
1695200974146583800,17.848583740234375,-6.239999771118164,58.5,0.7199999690055847
1695200974156582400,17.85858251953125,-6.299999713897705,58.73999786376953,0.9599999785423279
1695200974166581200,17.868581298828126,-6.119999885559082,58.37999725341797,1.3799999952316284
1695200974176579800,17.878579833984375,-6,58.2599983215332,1.7400000095367432
1695200974186578700,17.88857861328125,-6.420000076293945,58.13999938964844,1.7400000095367432
1695200974196577300,17.898577392578126,-6.119999885559082,58.2599983215332,1.6799999475479126
1695200974206576000,17.908576171875,-6.539999961853027,58.2599983215332,1.0799999237060547
1695200974216574700,17.91857470703125,-6.659999847412109,58.02000045776367,0.8999999761581421
1695200974226573600,17.928573486328126,-6.599999904632568,58.31999969482422,0.9599999785423279
1695200974236572200,17.938572265625,-6.420000076293945,58.02000045776367,1.1399999856948853
1695200974246570800,17.94857080078125,-6.119999885559082,58.439998626708984,1.0799999237060547
1695200974256569600,17.958569580078127,-6,58.68000030517578,1.1999999284744263
1695200974266568400,17.968568359375,-6.659999847412109,58.55999755859375,0.47999998927116394
1695200974276567300,17.9785673828125,-6.480000019073486,58.73999786376953,0.47999998927116394
1695200974286566000,17.98856591796875,-6.420000076293945,58.8599967956543,1.1399999856948853
1695200974296564700,17.998564697265625,-6.839999675750732,58.79999923706055,1.3199999332427979
1695200974306563600,18.0085634765625,-6,59.21999740600586,1.6799999475479126
1695200974316562200,18.018562255859376,-6.539999961853027,59.15999984741211,1.1999999284744263
1695200974326561000,18.02856103515625,-6.599999904632568,59.03999710083008,0.8999999761581421
1695200974336559600,18.0385595703125,-6.960000038146973,58.8599967956543,0.5999999642372131
1695200974346558500,18.048558349609376,-7.259999752044678,58.19999694824219,0.9599999785423279
1695200974356557000,18.05855712890625,-7.619999885559082,57.84000015258789,0.8399999737739563
1695200974366556000,18.068555908203123,-7.619999885559082,57.599998474121094,0.8399999737739563
1695200974376554800,18.0785546875,-7.37999963760376,58.13999938964844,1.1399999856948853
1695200974386553300,18.08855322265625,-7.319999694824219,58.02000045776367,1.1399999856948853
1695200974396552200,18.09855224609375,-7.019999980926514,58.439998626708984,1.1999999284744263
1695200974406551000,18.108551025390625,-7.019999980926514,58.619998931884766,1.6200000047683716
1695200974416549600,18.118549560546874,-6.659999847412109,58.91999816894531,1.3199999332427979
1695200974426548500,18.128548583984376,-6.659999847412109,59.39999771118164,0.7199999690055847
1695200974436547300,18.13854736328125,-7.079999923706055,59.63999938964844,0.7199999690055847
1695200974446546200,18.148546142578127,-7.259999752044678,59.279998779296875,0.47999998927116394
1695200974456544800,18.158544677734376,-7.679999828338623,59.099998474121094,1.0799999237060547
1695200974466543600,18.168543701171874,-7.559999942779541,59.03999710083008,1.6200000047683716
1695200974476542200,18.178542236328123,-7.5,58.68000030517578,1.4399999380111694
1695200974486541000,18.188541015625,-7.440000057220459,58.8599967956543,1.4399999380111694
1695200974496539600,18.19853955078125,-6.839999675750732,58.5,1.3799999952316284
1695200974506538500,18.20853857421875,-7.019999980926514,58.13999938964844,0.7199999690055847
1695200974516537300,18.218537353515625,-6.779999732971191,58.31999969482422,1.0799999237060547
1695200974526536200,18.2285361328125,-6.71999979019165,58.73999786376953,1.559999942779541
1695200974536534800,18.23853466796875,-7.259999752044678,59.15999984741211,1.3199999332427979
1695200974546533600,18.24853369140625,-7.319999694824219,58.97999954223633,1.7400000095367432
1695200974556532200,18.2585322265625,-7.37999963760376,59.15999984741211,1.4399999380111694
1695200974566531000,18.268531005859376,-7.619999885559082,58.73999786376953,1.1999999284744263
1695200974576529700,18.27852978515625,-7.679999828338623,58.439998626708984,1.3799999952316284
1695200974586528500,18.288528564453124,-7.919999599456787,58.5,1.2599999904632568
1695200974596527000,18.298527099609377,-8.09999942779541,58.02000045776367,1.4399999380111694
1695200974606526000,18.30852587890625,-8.760000228881836,58.37999725341797,1.0799999237060547
1695200974616524500,18.318524658203124,-8.519999504089355,58.439998626708984,0.9599999785423279
1695200974626523400,18.3285234375,-8.34000015258789,58.68000030517578,1.3799999952316284
1695200974636522000,18.33852197265625,-8.399999618530273,59.099998474121094,0.9599999785423279
1695200974646520800,18.348520751953124,-7.919999599456787,58.91999816894531,1.0199999809265137
1695200974656519400,18.35851953125,-8.279999732971191,59.279998779296875,1.0799999237060547
1695200974666518300,18.368518310546875,-8.34000015258789,59.39999771118164,0.7199999690055847
1695200974676517000,18.37851708984375,-7.980000019073486,59.03999710083008,0.9599999785423279
1695200974686515700,18.388515625,-7.919999599456787,58.5,0.7199999690055847
1695200974696514600,18.3985146484375,-8.15999984741211,57.89999771118164,0.6599999666213989
1695200974706513200,18.40851318359375,-8.519999504089355,57.779998779296875,0.5399999618530273
1695200974716512000,18.418511962890626,-8.819999694824219,58.19999694824219,0.9599999785423279
1695200974726510800,18.4285107421875,-9.179999351501465,58.5,1.1999999284744263
1695200974736509400,18.438509521484374,-9.059999465942383,58.55999755859375,1.4399999380111694
1695200974746508300,18.44850830078125,-8.399999618530273,58.55999755859375,1.3799999952316284
1695200974756507100,18.458507080078125,-8.399999618530273,58.02000045776367,0.8399999737739563
1695200974766505700,18.468505615234374,-8.09999942779541,57.71999740600586,1.2599999904632568
1695200974776504600,18.478504638671875,-8.15999984741211,57.05999755859375,0.8399999737739563
1695200974786503400,18.48850341796875,-8.819999694824219,56.63999938964844,0.7199999690055847
1695200974796502000,18.498501953125,-8.699999809265137,56.63999938964844,0.7799999713897705
1695200974806500900,18.5085009765625,-9.059999465942383,56.7599983215332,0.47999998927116394
1695200974816499500,18.51849951171875,-8.9399995803833,57.65999984741211,0.7199999690055847
1695200974826498300,18.528498291015627,-8.699999809265137,57.84000015258789,0.7799999713897705
1695200974836497200,18.5384970703125,-9.059999465942383,57.89999771118164,0.9599999785423279
1695200974846495700,18.548495849609374,-9,58.31999969482422,0.8399999737739563
1695200974856494600,18.55849462890625,-9.119999885559082,58.19999694824219,0.5399999618530273
1695200974866493400,18.568493408203125,-9.239999771118164,58.8599967956543,0.7199999690055847
1695200974876492000,18.578491943359374,-9,59.15999984741211,0.41999998688697815
1695200974886491000,18.588490966796876,-8.9399995803833,58.79999923706055,0
1695200974896489700,18.59848974609375,-8.760000228881836,58.19999694824219,0
1695200974906488800,18.60848876953125,-8.819999694824219,57.959999084472656,0
1695200974916487700,18.61848779296875,-9.059999465942383,58.07999801635742,-0.11999999731779099
1695200974926486500,18.628486572265626,-9.300000190734863,57.959999084472656,0.35999998450279236
1695200974936485400,18.6384853515625,-9.300000190734863,58.2599983215332,0.7199999690055847
1695200974946484200,18.648484130859377,-9.65999984741211,57.959999084472656,0.7799999713897705
1695200974956483000,18.658483154296874,-9.539999961853027,57.36000061035156,1.3199999332427979
1695200974966482000,18.66848193359375,-9.479999542236328,57.71999740600586,1.2599999904632568
1695200974976480800,18.678480712890625,-9.479999542236328,57.89999771118164,1.0799999237060547
1695200974986479600,18.688479736328127,-9,58.07999801635742,1.1399999856948853
1695200974996478500,18.698478515625,-9.539999961853027,58.31999969482422,0.47999998927116394
1695200975006477300,18.708477294921874,-9.300000190734863,58.5,0.7199999690055847
1695200975016476200,18.71847607421875,-9.479999542236328,57.959999084472656,0.41999998688697815
1695200975026475300,18.728475341796877,-10.079999923706055,57.53999710083008,0.5999999642372131
1695200975036474000,18.73847412109375,-9.779999732971191,57.18000030517578,0.7799999713897705
1695200975046473000,18.748472900390624,-9.899999618530273,57.36000061035156,0.35999998450279236
1695200975056471800,18.758471923828125,-10.019999504089355,57.779998779296875,0.8999999761581421
1695200975066470700,18.768470703125,-9.779999732971191,58.2599983215332,0.6599999666213989
1695200975076469500,18.778469482421876,-9.539999961853027,58.8599967956543,0.5399999618530273
1695200975086468400,18.78846826171875,-10.079999923706055,58.5,0.6599999666213989
1695200975096467200,18.79846728515625,-10.260000228881836,58.37999725341797,0.35999998450279236
1695200975106466000,18.808466064453125,-10.079999923706055,58.19999694824219,0.29999998211860657
1695200975116465000,18.81846484375,-10.559999465942383,57.71999740600586,0.35999998450279236
1695200975126463500,18.82846337890625,-10.559999465942383,57.84000015258789,0.35999998450279236
1695200975136462600,18.838462646484373,-9.960000038146973,57.47999954223633,0.29999998211860657
1695200975146461400,18.84846142578125,-10.139999389648438,57.47999954223633,0.7199999690055847
1695200975156460300,18.858460205078124,-9.899999618530273,57.36000061035156,1.1999999284744263
1695200975166459100,18.868459228515626,-9,57.119998931884766,1.1399999856948853
1695200975176458000,18.8784580078125,-9.300000190734863,57.53999710083008,1.0799999237060547
1695200975186456600,18.88845654296875,-9,57.41999816894531,0.7199999690055847
1695200975196455400,18.898455322265626,-9.300000190734863,57.599998474121094,0.47999998927116394
1695200975206454000,18.9084541015625,-9.899999618530273,57.959999084472656,0.6599999666213989
1695200975216452900,18.918452880859373,-10.380000114440918,57.959999084472656,0.8399999737739563
1695200975226451500,18.928451416015626,-10.739999771118164,57.779998779296875,1.3799999952316284
1695200975236450300,18.9384501953125,-10.559999465942383,58.13999938964844,1.7999999523162842
1695200975246449000,18.948448974609374,-10.559999465942383,57.599998474121094,1.3799999952316284
1695200975256447700,18.95844775390625,-10.4399995803833,57.41999816894531,1.1399999856948853
1695200975266446300,18.9684462890625,-10.139999389648438,57.36000061035156,0.7199999690055847
1695200975276445200,18.978445068359374,-10.260000228881836,56.939998626708984,0.41999998688697815
1695200975286443800,18.98844384765625,-10.380000114440918,56.87999725341797,0.7799999713897705
1695200975296442600,18.998442626953125,-10.199999809265137,56.81999969482422,1.3199999332427979
1695200975306441500,19.00844140625,-10.139999389648438,57.05999755859375,1.5
1695200975316440000,19.018440185546876,-10.199999809265137,56.87999725341797,1.7400000095367432
1695200975326439000,19.02843896484375,-10.5,57.23999786376953,1.7999999523162842
1695200975336437500,19.0384375,-10.319999694824219,57.29999923706055,1.9199999570846558
1695200975346436400,19.048436279296876,-10.920000076293945,57.05999755859375,1.9799998998641968
1695200975356435200,19.058435302734374,-10.859999656677246,57.119998931884766,2.2200000286102295
1695200975366433800,19.068433837890623,-10.619999885559082,57,2.2200000286102295
1695200975376432600,19.0784326171875,-11.09999942779541,57.05999755859375,2.0999999046325684
1695200975386431200,19.08843115234375,-10.739999771118164,57.23999786376953,2.1599998474121094
1695200975396430000,19.09843017578125,-10.739999771118164,57.779998779296875,2.3999998569488525
1695200975406429000,19.108428955078125,-10.260000228881836,57.84000015258789,2.759999990463257
1695200975416427500,19.118427490234374,-9.59999942779541,57.779998779296875,2.93999981880188
1695200975426426400,19.12842626953125,-9.420000076293945,57.779998779296875,2.93999981880188
1695200975436425200,19.13842529296875,-9.059999465942383,57.89999771118164,2.3999998569488525
1695200975446423800,19.148423828125,-9.059999465942383,58.439998626708984,2.0399999618530273
1695200975456422700,19.158422607421876,-9.179999351501465,59.099998474121094,1.4399999380111694
1695200975466421200,19.168421142578126,-9.179999351501465,59.39999771118164,1.4399999380111694
1695200975476420000,19.178420166015623,-9.059999465942383,59.39999771118164,1.3799999952316284
1695200975486419000,19.1884189453125,-9.300000190734863,59.099998474121094,1.3199999332427979
1695200975496417500,19.19841748046875,-9.479999542236328,58.73999786376953,1.5
1695200975506416400,19.20841650390625,-9,58.91999816894531,1.2599999904632568
1695200975516415000,19.2184150390625,-9.300000190734863,59.21999740600586,1.6200000047683716
1695200975526413800,19.228413818359375,-8.699999809265137,59.69999694824219,1.6799999475479126
1695200975536412700,19.23841259765625,-8.15999984741211,60.05999755859375,1.1399999856948853
1695200975546411300,19.248411376953126,-8.15999984741211,60.119998931884766,0.7799999713897705
1695200975556410000,19.25841015625,-8.09999942779541,59.7599983215332,0.23999999463558197
1695200975566408700,19.26840869140625,-8.639999389648438,59.459999084472656,0
1695200975576407600,19.278407470703126,-8.760000228881836,59.099998474121094,0.6599999666213989
1695200975586406400,19.288406494140624,-9.539999961853027,58.73999786376953,0.9599999785423279
1695200975596405000,19.298405029296877,-8.9399995803833,59.21999740600586,1.0799999237060547
1695200975606403800,19.30840380859375,-8.699999809265137,59.15999984741211,1.1399999856948853
1695200975616402400,19.31840234375,-8.760000228881836,59.39999771118164,1.4399999380111694
1695200975626401000,19.328401123046874,-7.919999599456787,59.52000045776367,1.4399999380111694
1695200975636399900,19.33839990234375,-8.399999618530273,59.52000045776367,1.7999999523162842
1695200975646398700,19.348398681640624,-8.579999923706055,59.63999938964844,1.9199999570846558
1695200975656397300,19.358397216796874,-8.279999732971191,60,1.559999942779541
1695200976856557300,20.558557373046874,12.179999351501465,46.619998931884766,-3.240000009536743
1695200976866557200,20.56855712890625,11.880000114440918,46.619998931884766,-3.179999828338623
1695200976876556300,20.578556396484377,11.880000114440918,46.79999923706055,-2.6399998664855957
1695200976886555000,20.588554931640626,11.639999389648438,46.55999755859375,-3.299999952316284
1695200976896553700,20.5985537109375,10.920000076293945,46.20000076293945,-3
1695200976906552300,20.60855224609375,11.039999961853027,46.439998626708984,-2.5199999809265137
1695200976916551200,20.61855126953125,10.979999542236328,46.86000061035156,-2.5799999237060547
1695200976926550000,20.628550048828124,11.039999961853027,46.73999786376953,-2.3399999141693115
1695200976936548600,20.638548583984374,11.460000038146973,46.91999816894531,-1.9199999570846558
1695200976946547500,20.64854736328125,11.399999618530273,46.55999755859375,-2.5199999809265137
1695200976956546000,20.658546142578125,11.34000015258789,46.439998626708984,-2.700000047683716
1695200976966545000,20.668544921875,10.859999656677246,46.31999969482422,-2.700000047683716
1695200976976543500,20.67854345703125,11.039999961853027,46.13999938964844,-2.700000047683716
1695200976986542300,20.688542236328125,11.09999942779541,46.07999801635742,-2.6399998664855957
1695200976996541000,20.698541015625,11.219999313354492,45.84000015258789,-2.819999933242798
1695200977006539800,20.708539794921876,11.579999923706055,46.2599983215332,-2.700000047683716
1695200977016539000,20.718538818359374,11.699999809265137,46.73999786376953,-2.759999990463257
1695200977026538000,20.7285380859375,11.519999504089355,46.86000061035156,-2.2799999713897705
1695200977036537000,20.738537109375,11.039999961853027,46.79999923706055,-1.6799999475479126
1695200977046536200,20.7485361328125,10.739999771118164,46.619998931884766,-1.7400000095367432
1695200977056535300,20.758535400390624,10.4399995803833,46.5,-2.0399999618530273
1695200977066534400,20.768534423828125,10.4399995803833,46.68000030517578,-1.8600000143051147
1695200977076533500,20.778533447265627,11.15999984741211,47.15999984741211,-1.8600000143051147
1695200977086532600,20.78853271484375,11.15999984741211,47.57999801635742,-2.2799999713897705
1695200977096531700,20.79853173828125,11.399999618530273,47.939998626708984,-1.9799998998641968
1695200977106530800,20.80853076171875,11.699999809265137,48.53999710083008,-2.5799999237060547
1695200977116530000,20.818530029296873,11.399999618530273,48.119998931884766,-3.119999885559082
1695200977126529000,20.828529052734375,11.460000038146973,48,-2.5199999809265137
1695200977136528100,20.838528076171876,10.979999542236328,47.57999801635742,-2.3399999141693115
1695200977146527200,20.84852734375,10.800000190734863,46.2599983215332,-1.8600000143051147
1695200977156526300,20.8585263671875,10.739999771118164,46.68000030517578,-1.6799999475479126
1695200977166525400,20.868525390625,10.619999885559082,46.37999725341797,-2.2200000286102295
1695200977176524500,20.878524658203126,10.4399995803833,46.20000076293945,-2.4600000381469727
1695200977186523600,20.888523681640624,10.5,46.91999816894531,-2.819999933242798
1695200977196522500,20.8985224609375,10.380000114440918,46.79999923706055,-2.879999876022339
1695200977206521600,20.908521484375,10.260000228881836,46.73999786376953,-2.4600000381469727
1695200977216520700,20.918520751953125,10.679999351501465,46.73999786376953,-2.700000047683716
1695200977226519800,20.928519775390626,10.979999542236328,46.2599983215332,-2.6399998664855957
1695200977236518700,20.9385185546875,10.920000076293945,46.37999725341797,-2.5199999809265137
1695200977246517800,20.948517822265625,11.460000038146973,46.68000030517578,-2.5799999237060547
1695200977256516900,20.958516845703127,11.09999942779541,46.91999816894531,-1.6200000047683716
1695200977266516000,20.968515869140624,10.619999885559082,47.70000076293945,-1.6799999475479126
1695200977276515000,20.97851513671875,10.319999694824219,47.459999084472656,-1.4399999380111694
1695200977286514200,20.98851416015625,10.019999504089355,47.52000045776367,-1.0799999237060547
1695200977296513300,20.99851318359375,10.019999504089355,47.87999725341797,-1.6799999475479126
1695200977306512100,21.00851220703125,9.779999732971191,47.63999938964844,-1.4399999380111694
1695200977316511000,21.018510986328124,9.899999618530273,48.119998931884766,-1.2599999904632568
1695200977326509800,21.028509765625,9.479999542236328,47.87999725341797,-1.6799999475479126
1695200977336508700,21.0385087890625,9.59999942779541,47.939998626708984,-1.5
1695200977346507500,21.048507568359376,9.960000038146973,47.87999725341797,-1.1399999856948853
1695200977356506400,21.05850634765625,9.960000038146973,47.39999771118164,-0.8999999761581421
1695200977366505200,21.068505126953124,9.84000015258789,47.81999969482422,-0.8399999737739563
1695200977376504000,21.078504150390625,9.239999771118164,47.15999984741211,-1.3799999952316284
1695200977386502700,21.088502685546874,8.760000228881836,47.70000076293945,-1.6799999475479126
1695200977396501500,21.09850146484375,8.399999618530273,48.119998931884766,-2.3999998569488525
1695200977406500000,21.1085,8.279999732971191,48.05999755859375,-2.2799999713897705
1695200977416498700,21.118498779296875,8.579999923706055,48.84000015258789,-1.9199999570846558
1695200977426497500,21.12849755859375,8.699999809265137,48.18000030517578,-2.2200000286102295
1695200977436496400,21.138496337890626,8.699999809265137,47.939998626708984,-2.0999999046325684
1695200977446495000,21.148494873046875,8.9399995803833,47.939998626708984,-2.0399999618530273
1695200977456493600,21.15849365234375,8.460000038146973,48,-2.2799999713897705
1695200977466492400,21.168492431640626,8.519999504089355,48.599998474121094,-2.0399999618530273
1695200977476491300,21.1784912109375,8.760000228881836,49.02000045776367,-2.2799999713897705
1695200977486489900,21.18848974609375,8.579999923706055,49.20000076293945,-2.6399998664855957
1695200977496488700,21.19848876953125,8.760000228881836,49.02000045776367,-2.6399998664855957
1695200977506487600,21.208487548828124,8.579999923706055,49.31999969482422,-2.6399998664855957
1695200977516486100,21.218486083984374,8.15999984741211,48.84000015258789,-2.2799999713897705
1695200977526485000,21.228485107421875,8.15999984741211,48.779998779296875,-1.7400000095367432
1695200977536483800,21.23848388671875,8.639999389648438,48.65999984741211,-1.3799999952316284
1695200977546482400,21.248482421875,8.699999809265137,47.939998626708984,-1.559999942779541
1695200977556481300,21.258481201171875,8.460000038146973,48.05999755859375,-1.6200000047683716
1695200977566480000,21.26847998046875,8.579999923706055,48.599998474121094,-1.6799999475479126
1695200977576478700,21.278478759765626,7.739999771118164,48.84000015258789,-1.5
1695200977586477300,21.288477294921876,7.619999885559082,49.13999938964844,-1.2599999904632568
1695200977596476200,21.29847607421875,8.399999618530273,49.439998626708984,-0.9599999785423279
1695200977606475000,21.30847509765625,8.279999732971191,48.53999710083008,-1.1999999284744263
1695200977616473900,21.318473876953124,8.279999732971191,48.23999786376953,-1.4399999380111694
1695200977626472400,21.328472412109374,7.859999656677246,48.36000061035156,-1.2599999904632568
1695200977636471300,21.33847119140625,7.079999923706055,48.119998931884766,-1.1399999856948853
1695200977646470100,21.34847021484375,7.079999923706055,48.53999710083008,-1.0799999237060547
1695200977656468700,21.35846875,7.5,48.779998779296875,-0.9599999785423279
1695200977666467600,21.368467529296876,7.919999599456787,48.65999984741211,-1.1399999856948853
1695200977676466200,21.378466064453125,7.859999656677246,48.84000015258789,-1.3199999332427979
1695200977686465000,21.388465087890626,7.37999963760376,49.02000045776367,-0.9599999785423279
1695200977696463600,21.398463623046876,6.839999675750732,48.89999771118164,-1.0199999809265137
1695200977706462500,21.40846240234375,6.299999713897705,49.02000045776367,-0.8999999761581421
1695200977716461300,21.41846142578125,6.179999828338623,48.89999771118164,-0.5399999618530273
1695200977726460000,21.4284599609375,6.659999847412109,48.71999740600586,-0.8999999761581421
1695200977736458800,21.438458740234374,7.199999809265137,49.2599983215332,-0.7199999690055847
1695200977746457300,21.448457275390624,7.679999828338623,49.439998626708984,-0.5399999618530273
1695200977756456200,21.458456298828125,7.559999942779541,49.73999786376953,-0.7199999690055847
1695200985108611800,28.81061181640625,-37.619998931884766,57.47999954223633,-25.559999465942383
1695200985118610000,28.82060986328125,-37.73999786376953,57.18000030517578,-25.139999389648438
1695200985128608000,28.83060791015625,-37.91999816894531,57.119998931884766,-24.84000015258789
1695200985138606600,28.840606689453125,-37.79999923706055,57.41999816894531,-24.84000015258789
1695200985148605000,28.85060498046875,-38.15999984741211,57.119998931884766,-24.65999984741211
1695200985158603800,28.860603759765624,-38.040000915527344,56.7599983215332,-25.079999923706055
1695200985168602600,28.8706025390625,-38.040000915527344,57.65999984741211,-25.3799991607666
1695200985178600700,28.8806005859375,-37.97999954223633,57.47999954223633,-25.31999969482422
1695200985188599600,28.890599609375,-37.79999923706055,57.53999710083008,-24.899999618530273
1695200985198598100,28.90059814453125,-37.86000061035156,58.02000045776367,-24.53999900817871
1695200985208596700,28.9105966796875,-37.5,57.599998474121094,-24.65999984741211
1695200985218595600,28.920595703125,-37.380001068115234,57.71999740600586,-24.65999984741211
1695200985228594400,28.930594482421874,-37.55999755859375,57.599998474121094,-25.439998626708984
1695200985238593000,28.940593017578124,-37.439998626708984,57.599998474121094,-25.139999389648438
1695200985248591600,28.950591552734377,-37.68000030517578,57.41999816894531,-25.139999389648438
1695200985258590500,28.960590576171874,-37.73999786376953,57.47999954223633,-25.079999923706055
1695200985268589000,28.970589111328124,-37.86000061035156,57.65999984741211,-24.65999984741211
1695200985278588000,28.980587890625,-38.040000915527344,57.71999740600586,-24.899999618530273
1695200985288586500,28.99058642578125,-38.52000045776367,57.65999984741211,-24.600000381469727
1695200985298585300,29.00058544921875,-38.279998779296875,57.71999740600586,-24.600000381469727
1695200985308584000,29.010583984375,-37.91999816894531,57.71999740600586,-24.779998779296875
1695200985318582500,29.02058251953125,-37.55999755859375,57.71999740600586,-24.420000076293945
1695200985328581400,29.030581298828125,-37.439998626708984,57.599998474121094,-24.239999771118164
1695200985338580000,29.040580078125,-37.91999816894531,57.53999710083008,-24.119998931884766
1695200985348578800,29.050578857421876,-38.15999984741211,57.36000061035156,-24
1695200985358577400,29.060577392578125,-38.57999801635742,57.119998931884766,-24.35999870300293
1695200985368576000,29.070575927734374,-38.21999740600586,56.939998626708984,-24.299999237060547
1695200985378574800,29.080574951171876,-38.63999938964844,56.7599983215332,-24.779998779296875
1695200985388573400,29.090573486328125,-39.05999755859375,57.05999755859375,-24.779998779296875
1695200985398572000,29.100572021484375,-38.939998626708984,56.459999084472656,-25.139999389648438
