Time,CorrectedGyroX,CorrectedGyroY,CorrectedGyroZ,CorrectedAccelX,CorrectedAccelY,CorrectedAccelZ,CorrectedMagX,CorrectedMagY,CorrectedMagZ
1699595100.3095658,-0.046424392610788345,0.12461283802986145,0.09040539711713791,0.007198000326752663,-1.0058900117874146,0.08680300414562225,0.09000000357627869,0.6554999947547913,-0.4440000057220459
1699595100.3136783,-0.03787253051996231,0.11483928561210632,0.08796200156211853,-0.001891000079922378,-0.9999120235443115,0.09009700268507004,0.09000000357627869,0.6554999947547913,-0.4440000057220459
1699595100.3186843,-0.04153761267662048,0.11361759155988693,0.09284878522157669,0.01067500002682209,-0.98996901512146,0.08973100036382675,0.08550000190734863,0.6570000052452087,-0.4514999985694885
1699595100.3247333,-0.045202698558568954,0.1185043677687645,0.08429691940546036,0.013542000204324722,-1.002351999282837,0.08942600339651108,0.08550000190734863,0.6570000052452087,-0.4514999985694885
1699595100.3287165,-0.042759306728839874,0.11972606182098389,0.09040539711713791,0.005917000118643045,-1.0085740089416504,0.09430600702762604,0.09149999916553497,0.6644999980926514,-0.45000001788139343
1699595100.3336906,-0.04153761267662048,0.12094775587320328,0.08918370306491852,0.006832000333815813,-1.0045480728149414,0.08899900317192078,0.09149999916553497,0.6644999980926514,-0.45000001788139343
1699595100.3387635,-0.047646086663007736,0.1172826737165451,0.09040539711713791,0.011651000007987022,-1.0077199935913086,0.09052400290966034,0.08699999749660492,0.6570000052452087,-0.453000009059906
1699595100.3438277,-0.042759306728839874,0.12339114397764206,0.09040539711713791,0.0036600001621991396,-1.00381600856781,0.0878400057554245,0.08699999749660492,0.6570000052452087,-0.453000009059906
1699595100.348828,-0.04153761267662048,0.11606097966432571,0.08918370306491852,0.008357000537216663,-0.9985700249671936,0.08759600669145584,0.08250000327825546,0.6600000262260437,-0.44850000739097595
1699595100.3538299,-0.043981000781059265,0.11483928561210632,0.08796200156211853,0.007930000312626362,-0.99698406457901,0.08460700511932373,0.08250000327825546,0.6600000262260437,-0.44850000739097595
1699595100.35889,-0.045202698558568954,0.12583453953266144,0.08307522535324097,0.010248000733554363,-1.0018640756607056,0.09113400429487228,0.09000000357627869,0.6570000052452087,-0.45000001788139343
1699595100.3639493,-0.042759306728839874,0.11361759155988693,0.08551861345767975,0.007808000314980745,-1.0063780546188354,0.0899140015244484,0.09000000357627869,0.6570000052452087,-0.45000001788139343
1699595100.3690443,-0.045202698558568954,0.1185043677687645,0.08674030750989914,0.008479000069200993,-1.0052189826965332,0.09192700684070587,0.08699999749660492,0.6570000052452087,-0.4560000002384186
1699595100.3740366,-0.045202698558568954,0.10995250940322876,0.07696675509214401,0.007625000085681677,-1.0004000663757324,0.08820600062608719,0.08699999749660492,0.6570000052452087,-0.4560000002384186
1699595100.3791687,-0.047646086663007736,0.1185043677687645,0.09284878522157669,0.008723000064492226,-0.9995460510253906,0.08899900317192078,0.09300000220537186,0.6629999876022339,-0.44699999690055847
1699595100.3842337,-0.05008947476744652,0.1172826737165451,0.09529217332601547,0.002806000178679824,-1.0004000663757324,0.0895480066537857,0.09300000220537186,0.6629999876022339,-0.44699999690055847
1699595100.389329,-0.04153761267662048,0.11361759155988693,0.0916270911693573,0.007381000090390444,-1.0117460489273071,0.09125600010156631,0.09149999916553497,0.6614999771118164,-0.4440000057220459
1699595100.3943315,-0.03420744836330414,0.12339114397764206,0.09040539711713791,0.008540000766515732,-1.0030840635299683,0.08723000437021255,0.09149999916553497,0.6614999771118164,-0.4440000057220459
1699595100.39936,-0.04031591862440109,0.1172826737165451,0.09040539711713791,0.007015000097453594,-0.9966790676116943,0.08863300085067749,0.0885000005364418,0.6570000052452087,-0.453000009059906
1699595100.4044347,-0.046424392610788345,0.11483928561210632,0.09040539711713791,0.002379000186920166,-1.0041210651397705,0.08241100609302521,0.0885000005364418,0.6570000052452087,-0.453000009059906
1699595100.4094267,-0.045202698558568954,0.11239589750766754,0.08796200156211853,0.01000400073826313,-1.0035719871520996,0.09143900126218796,0.09300000220537186,0.6585000157356262,-0.44850000739097595
1699595100.414421,-0.05008947476744652,0.12339114397764206,0.0916270911693573,0.009577000513672829,-1.0035719871520996,0.08686400204896927,0.09300000220537186,0.6585000157356262,-0.44850000739097595
1699595100.418599,-0.03787253051996231,0.11483928561210632,0.08063183724880219,-0.0008540000417269766,-1.0004609823226929,0.09424500167369843,0.08699999749660492,0.6644999980926514,-0.4455000162124634
1699595100.4236534,-0.04153761267662048,0.11239589750766754,0.0916270911693573,0.008296000771224499,-0.9997900128364563,0.0886940062046051,0.08699999749660492,0.6644999980926514,-0.4455000162124634
1699595100.4286654,-0.043981000781059265,0.1185043677687645,0.08429691940546036,0.008906000293791294,-1.002413034439087,0.08759600669145584,0.09750000387430191,0.6629999876022339,-0.4455000162124634
1699595100.4336603,-0.042759306728839874,0.1185043677687645,0.08918370306491852,0.0043920003809034824,-1.0031450986862183,0.08594900369644165,0.09750000387430191,0.6629999876022339,-0.4455000162124634
1699595100.4386935,-0.04153761267662048,0.11117420345544815,0.08796200156211853,0.005612000357359648,-1.0014979839324951,0.09131700545549393,0.09449999779462814,0.6629999876022339,-0.44850000739097595
1699595100.4436595,-0.043981000781059265,0.1172826737165451,0.08918370306491852,0.01128500048071146,-1.0008879899978638,0.08887699991464615,0.09449999779462814,0.6629999876022339,-0.44850000739097595
1699595100.4486835,-0.04153761267662048,0.11606097966432571,0.08674030750989914,0.007869000546634197,-1.0041210651397705,0.0882670059800148,0.09000000357627869,0.6675000190734863,-0.45750001072883606
1699595100.4536567,-0.04153761267662048,0.11483928561210632,0.08674030750989914,0.006344000343233347,-1.0009490251541138,0.08814500272274017,0.09000000357627869,0.6675000190734863,-0.45750001072883606
1699595100.45871,-0.043981000781059265,0.11606097966432571,0.08796200156211853,0.00823500007390976,-1.004181981086731,0.08771800249814987,0.09000000357627869,0.6644999980926514,-0.44850000739097595
1699595100.46366,-0.04153761267662048,0.1185043677687645,0.0916270911693573,0.005917000118643045,-1.0004000663757324,0.08820600062608719,0.09000000357627869,0.6644999980926514,-0.44850000739097595
1699595100.4686575,-0.045202698558568954,0.11972606182098389,0.08918370306491852,0.005368000362068415,-1.0028400421142578,0.08997500687837601,0.08399999886751175,0.6675000190734863,-0.43799999356269836
1699595100.4736855,-0.04031591862440109,0.1172826737165451,0.08796200156211853,0.0067100003361701965,-1.0044870376586914,0.09107300639152527,0.08399999886751175,0.6675000190734863,-0.43799999356269836
1699595100.4789176,-0.0390942245721817,0.1185043677687645,0.08918370306491852,0.010797000490128994,-1.0033890008926392,0.08875500410795212,0.0989999994635582,0.6554999947547913,-0.4455000162124634
1699595100.4839778,-0.043981000781059265,0.11239589750766754,0.08796200156211853,0.005002000369131565,-1.0017420053482056,0.0878400057554245,0.0885000005364418,0.6735000014305115,-0.44699999690055847
1699595100.4890735,-0.043981000781059265,0.1172826737165451,0.08918370306491852,0.00658800033852458,-1.0025349855422974,0.08625400066375732,0.0885000005364418,0.6735000014305115,-0.44699999690055847
1699595100.4940748,-0.046424392610788345,0.11972606182098389,0.09040539711713791,0.008174000307917595,-1.0040600299835205,0.08643700182437897,0.09449999779462814,0.6614999771118164,-0.4544999897480011
1699595100.4991388,-0.04153761267662048,0.11117420345544815,0.08918370306491852,0.009455000050365925,-1.0010710954666138,0.08790100365877151,0.09449999779462814,0.6614999771118164,-0.4544999897480011
1699595100.504201,-0.042759306728839874,0.11606097966432571,0.09040539711713791,0.007442000322043896,-1.0021690130233765,0.09089000523090363,0.09300000220537186,0.6644999980926514,-0.4424999952316284
1699595100.5092947,-0.046424392610788345,0.12216944992542267,0.08429691940546036,0.006893000099807978,-1.0036940574645996,0.08759600669145584,0.09300000220537186,0.6644999980926514,-0.4424999952316284
1699595100.5142853,-0.046424392610788345,0.1185043677687645,0.09529217332601547,0.005307000130414963,-1.0035719871520996,0.08936500549316406,0.09000000357627869,0.6600000262260437,-0.4455000162124634
1699595100.5192974,-0.043981000781059265,0.1185043677687645,0.08551861345767975,0.00622200034558773,-1.0011320114135742,0.08985300362110138,0.09000000357627869,0.6600000262260437,-0.4455000162124634
1699595100.524365,-0.043981000781059265,0.11483928561210632,0.08918370306491852,0.007442000322043896,-1.001986026763916,0.08924300223588943,0.08550000190734863,0.6629999876022339,-0.44699999690055847
1699595100.5293632,-0.042759306728839874,0.11972606182098389,0.0916270911693573,0.00695400033146143,-1.0046089887619019,0.0878400057554245,0.08550000190734863,0.6629999876022339,-0.44699999690055847
1699595100.5343611,-0.047646086663007736,0.11972606182098389,0.09040539711713791,0.007930000312626362,-1.0016200542449951,0.08735200017690659,0.0885000005364418,0.6644999980926514,-0.45000001788139343
1699595100.539472,-0.043981000781059265,0.1185043677687645,0.08796200156211853,0.007869000546634197,-1.002351999282837,0.0882670059800148,0.0885000005364418,0.6644999980926514,-0.45000001788139343
1699595100.5444486,-0.043981000781059265,0.11972606182098389,0.0916270911693573,0.007259000092744827,-1.0071099996566772,0.08918200433254242,0.08250000327825546,0.6585000157356262,-0.44850000739097595
1699595100.5494764,-0.042759306728839874,0.1172826737165451,0.09529217332601547,0.009821000508964062,-1.0064390897750854,0.08808400481939316,0.08250000327825546,0.6585000157356262,-0.44850000739097595
1699595100.5544581,-0.04153761267662048,0.11972606182098389,0.08796200156211853,0.005124000366777182,-1.006622076034546,0.08765700459480286,0.09149999916553497,0.6644999980926514,-0.45000001788139343
1699595100.5585766,-0.045202698558568954,0.11606097966432571,0.08551861345767975,0.006344000343233347,-1.0018640756607056,0.08625400066375732,0.09149999916553497,0.6644999980926514,-0.45000001788139343
1699595100.5636337,-0.04153761267662048,0.11972606182098389,0.09407047927379608,0.007686000317335129,-1.0029619932174683,0.08729100227355957,0.08699999749660492,0.6690000295639038,-0.45000001788139343
1699595100.568646,-0.047646086663007736,0.11483928561210632,0.08918370306491852,0.007564000319689512,-1.0015590190887451,0.09070700407028198,0.08699999749660492,0.6690000295639038,-0.45000001788139343
1699595100.5736423,-0.04153761267662048,0.1185043677687645,0.08551861345767975,0.009882000274956226,-0.9993020296096802,0.0899140015244484,0.07800000160932541,0.6554999947547913,-0.45000001788139343
1699595100.5789492,-0.04031591862440109,0.12705622613430023,0.08796200156211853,0.006771000102162361,-1.0005830526351929,0.09028000384569168,0.07800000160932541,0.6554999947547913,-0.45000001788139343
1699595100.5840287,-0.043981000781059265,0.11606097966432571,0.08307522535324097,0.008967000059783459,-0.9985090494155884,0.08875500410795212,0.08399999886751175,0.6629999876022339,-0.45000001788139343
1699595100.5891082,-0.03787253051996231,0.11972606182098389,0.0916270911693573,0.00823500007390976,-1.0028400421142578,0.0924760028719902,0.08399999886751175,0.6629999876022339,-0.45000001788139343
1699595100.5941076,-0.043981000781059265,0.1185043677687645,0.09284878522157669,0.009089000523090363,-1.0018640756607056,0.08887699991464615,0.08550000190734863,0.6629999876022339,-0.44699999690055847
1699595100.5991132,-0.0390942245721817,0.1172826737165451,0.08185353130102158,0.007686000317335129,-1.0035719871520996,0.08759600669145584,0.08550000190734863,0.6629999876022339,-0.44699999690055847
1699595100.6041782,-0.046424392610788345,0.1185043677687645,0.09284878522157669,0.006283000111579895,-1.0047920942306519,0.08979200571775436,0.08699999749660492,0.6600000262260437,-0.4424999952316284
1699595100.6092718,-0.03665083646774292,0.1185043677687645,0.08796200156211853,0.005307000130414963,-1.004304051399231,0.0899140015244484,0.08699999749660492,0.6600000262260437,-0.4424999952316284
1699595100.6142635,-0.042759306728839874,0.1172826737165451,0.08551861345767975,0.005307000130414963,-1.0025349855422974,0.08893800526857376,0.09600000083446503,0.6629999876022339,-0.4455000162124634
1699595100.619423,-0.045202698558568954,0.1172826737165451,0.08918370306491852,0.006527000106871128,-1.0011320114135742,0.0869860053062439,0.09600000083446503,0.6629999876022339,-0.4455000162124634
1699595100.6234841,-0.04153761267662048,0.1172826737165451,0.09040539711713791,0.005307000130414963,-0.9993630647659302,0.08881600201129913,0.08550000190734863,0.6644999980926514,-0.45000001788139343
1699595100.6284838,-0.046424392610788345,0.11606097966432571,0.08918370306491852,0.00884500052779913,-1.0008270740509033,0.08796200156211853,0.08550000190734863,0.6644999980926514,-0.45000001788139343
1699595100.633481,-0.047646086663007736,0.11606097966432571,0.08796200156211853,0.006771000102162361,-1.0008879899978638,0.08735200017690659,0.08550000190734863,0.6660000085830688,-0.4544999897480011
1699595100.6385255,-0.047646086663007736,0.10750912129878998,0.07574506103992462,0.00695400033146143,-1.0037550926208496,0.08765700459480286,0.08550000190734863,0.6660000085830688,-0.4544999897480011
1699595100.6434824,-0.043981000781059265,0.11972606182098389,0.09407047927379608,0.006344000343233347,-1.0046089887619019,0.08930400013923645,0.0989999994635582,0.6480000019073486,-0.453000009059906
1699595100.649509,-0.04153761267662048,0.11361759155988693,0.08063183724880219,0.006527000106871128,-1.005645990371704,0.08973100036382675,0.0989999994635582,0.6480000019073486,-0.453000009059906
1699595100.6534874,-0.045202698558568954,0.11606097966432571,0.08918370306491852,0.006039000116288662,-1.0050359964370728,0.08918200433254242,0.08399999886751175,0.6675000190734863,-0.4455000162124634
1699595100.6585627,-0.046424392610788345,0.1172826737165451,0.09407047927379608,0.007564000319689512,-1.0025960206985474,0.08796200156211853,0.08399999886751175,0.6675000190734863,-0.4455000162124634
1699595100.6636708,-0.045202698558568954,0.1172826737165451,0.09773556143045425,0.003782000159844756,-1.0060120820999146,0.08899900317192078,0.09300000220537186,0.6629999876022339,-0.44850000739097595
1699595100.6686547,-0.03542914241552353,0.10995250940322876,0.0794101431965828,0.00469700014218688,-1.0028400421142578,0.08845000714063644,0.09300000220537186,0.6629999876022339,-0.44850000739097595
1699595100.673654,-0.045202698558568954,0.1172826737165451,0.08796200156211853,0.008052000775933266,-1.0050970315933228,0.08802300691604614,0.07800000160932541,0.6570000052452087,-0.44699999690055847
1699595100.6789742,-0.04153761267662048,0.11606097966432571,0.07330167293548584,0.006893000099807978,-0.9985090494155884,0.090768001973629,0.07800000160932541,0.6570000052452087,-0.44699999690055847
1699595100.6840315,-0.04031591862440109,0.11606097966432571,0.08551861345767975,0.007747000083327293,-1.0033280849456787,0.08820600062608719,0.09000000357627869,0.6570000052452087,-0.43950000405311584
1699595100.6891363,-0.046424392610788345,0.12216944992542267,0.09284878522157669,0.0067100003361701965,-1.001986026763916,0.08899900317192078,0.09000000357627869,0.6570000052452087,-0.43950000405311584
1699595100.694129,-0.042759306728839874,0.11972606182098389,0.08796200156211853,0.007442000322043896,-1.0034500360488892,0.09015800058841705,0.08550000190734863,0.6600000262260437,-0.44699999690055847
1699595100.6992636,-0.04031591862440109,0.11606097966432571,0.08674030750989914,0.006832000333815813,-1.0048530101776123,0.08674200624227524,0.08550000190734863,0.6600000262260437,-0.44699999690055847
1699595100.704329,-0.047646086663007736,0.11361759155988693,0.08674030750989914,0.00884500052779913,-1.0035719871520996,0.0894870012998581,0.09300000220537186,0.6614999771118164,-0.4514999985694885
1699595100.709326,-0.04886778071522713,0.11972606182098389,0.08918370306491852,0.005856000352650881,-1.0036330223083496,0.09040200710296631,0.09300000220537186,0.6614999771118164,-0.4514999985694885
1699595100.7143257,-0.043981000781059265,0.11972606182098389,0.08796200156211853,0.007442000322043896,-1.0055240392684937,0.08985300362110138,0.08699999749660492,0.6675000190734863,-0.45000001788139343
1699595100.7194633,-0.042759306728839874,0.11483928561210632,0.08551861345767975,0.005856000352650881,-1.000156044960022,0.08942600339651108,0.08699999749660492,0.6675000190734863,-0.45000001788139343
1699595100.7244241,-0.043981000781059265,0.11972606182098389,0.09529217332601547,0.005856000352650881,-1.0028400421142578,0.08863300085067749,0.09449999779462814,0.6629999876022339,-0.4514999985694885
1699595100.7294157,-0.043981000781059265,0.11483928561210632,0.08551861345767975,0.006527000106871128,-1.0032060146331787,0.08906000107526779,0.08550000190734863,0.6644999980926514,-0.4455000162124634
1699595100.7344267,-0.047646086663007736,0.1172826737165451,0.09040539711713791,0.007564000319689512,-1.00381600856781,0.08857200294733047,0.08550000190734863,0.6644999980926514,-0.4455000162124634
1699595100.7395175,-0.04153761267662048,0.1172826737165451,0.08429691940546036,0.008723000064492226,-1.0048530101776123,0.08753500133752823,0.09149999916553497,0.6644999980926514,-0.453000009059906
1699595100.74356,-0.04153761267662048,0.11483928561210632,0.08307522535324097,0.007869000546634197,-1.0012540817260742,0.08979200571775436,0.09149999916553497,0.6644999980926514,-0.453000009059906
1699595100.748557,-0.04031591862440109,0.11972606182098389,0.08796200156211853,0.006100000347942114,-1.00381600856781,0.09015800058841705,0.09149999916553497,0.6644999980926514,-0.453000009059906
1699595100.7535605,-0.04031591862440109,0.12094775587320328,0.08429691940546036,0.01073600072413683,-1.0044260025024414,0.08814500272274017,0.08550000190734863,0.6554999947547913,-0.4544999897480011
1699595100.7588222,-0.045202698558568954,0.12216944992542267,0.0916270911693573,0.00939400028437376,-1.0030840635299683,0.08857200294733047,0.08550000190734863,0.6554999947547913,-0.4544999897480011
1699595100.7638953,-0.04031591862440109,0.12216944992542267,0.09284878522157669,0.007137000095099211,-1.0011930465698242,0.08960900455713272,0.08699999749660492,0.6570000052452087,-0.43950000405311584
1699595100.7690203,-0.04153761267662048,0.12094775587320328,0.08429691940546036,0.008784000761806965,-1.0007660388946533,0.08790100365877151,0.08699999749660492,0.6570000052452087,-0.43950000405311584
1699595100.7740057,-0.043981000781059265,0.1172826737165451,0.08918370306491852,0.007686000317335129,-1.0025960206985474,0.08918200433254242,0.08250000327825546,0.6690000295639038,-0.45000001788139343
1699595100.7787528,-0.04031591862440109,0.1172826737165451,0.09407047927379608,0.0064050001092255116,-1.0032060146331787,0.08845000714063644,0.08250000327825546,0.6690000295639038,-0.45000001788139343
1699595100.7838085,-0.042759306728839874,0.12216944992542267,0.08918370306491852,0.004941000137478113,-1.0009490251541138,0.08759600669145584,0.09149999916553497,0.6660000085830688,-0.4424999952316284
1699595100.788807,-0.046424392610788345,0.1172826737165451,0.08796200156211853,0.007686000317335129,-1.0029010772705078,0.08820600062608719,0.09149999916553497,0.6660000085830688,-0.4424999952316284
1699595100.7938132,-0.042759306728839874,0.11361759155988693,0.08063183724880219,0.009089000523090363,-1.002047061920166,0.08887699991464615,0.09300000220537186,0.6614999771118164,-0.44850000739097595
1699595100.7988145,-0.042759306728839874,0.11606097966432571,0.08551861345767975,0.007808000314980745,-0.9979600310325623,0.09089000523090363,0.09300000220537186,0.6614999771118164,-0.44850000739097595
1699595100.8038826,-0.043981000781059265,0.11606097966432571,0.08674030750989914,0.005917000118643045,-1.0146130323410034,0.0882670059800148,0.08550000190734863,0.6690000295639038,-0.45899999141693115
1699595100.8089733,-0.045202698558568954,0.1172826737165451,0.08674030750989914,0.0010980000952258706,-1.0494440793991089,0.08418000489473343,0.08550000190734863,0.6690000295639038,-0.45899999141693115
1699595100.8139749,-0.03787253051996231,0.11606097966432571,0.08551861345767975,0.004575000144541264,-1.097390055656433,0.07991000264883041,0.0885000005364418,0.6614999771118164,-0.4440000057220459
1699595100.8191063,-0.03176405653357506,0.11239589750766754,0.08185353130102158,0.01073600072413683,-1.0258980989456177,0.10443200170993805,0.08399999886751175,0.6570000052452087,-0.4514999985694885
1699595100.8241646,-0.05008947476744652,0.12094775587320328,0.08918370306491852,0.02525400184094906,-0.8830360174179077,0.10998300462961197,0.08399999886751175,0.6570000052452087,-0.4514999985694885
1699595100.8292675,-0.0390942245721817,0.11361759155988693,0.08307522535324097,-0.008418000303208828,-0.8885260224342346,0.0954040065407753,0.08399999886751175,0.6600000262260437,-0.44699999690055847
1699595100.8342843,-0.04886778071522713,0.10995250940322876,0.09040539711713791,0.030988000333309174,-0.8957240581512451,0.06972300261259079,0.08399999886751175,0.6600000262260437,-0.44699999690055847
1699595100.8393877,-0.023212196305394173,0.1050657257437706,0.07574506103992462,-0.01744600012898445,-1.0132710933685303,0.05605900287628174,0.09149999916553497,0.6614999771118164,-0.45000001788139343
1699595100.844388,-0.007330167107284069,0.10628741979598999,0.09284878522157669,-0.01000400073826313,-1.348344087600708,0.07808000594377518,0.09149999916553497,0.6614999771118164,-0.45000001788139343
1699595100.8494434,-0.05131116881966591,0.12094775587320328,0.09895725548267365,0.010065000504255295,-0.8577820062637329,0.0974780023097992,0.08250000327825546,0.6614999771118164,-0.453000009059906
1699595100.8543892,-0.014660334214568138,0.11117420345544815,0.10628741979598999,0.0043920003809034824,-0.8455210328102112,0.1155950054526329,0.08250000327825546,0.6614999771118164,-0.453000009059906
1699595100.859474,0.0,0.10384403169155121,0.062306419014930725,-0.016287000849843025,-1.3003981113433838,0.059536002576351166,0.07800000160932541,0.6629999876022339,-0.43950000405311584
1699595100.8634808,-0.04886778071522713,0.11606097966432571,0.10384403169155121,0.05392400175333023,-0.9360450506210327,0.06417199969291687,0.07800000160932541,0.6629999876022339,-0.43950000405311584
1699595100.8686197,-0.03176405653357506,0.11117420345544815,0.08796200156211853,0.03342800214886665,-1.0096720457077026,0.08271600306034088,0.07800000160932541,0.6629999876022339,-0.43950000405311584
1699595100.8736827,-0.045202698558568954,0.1172826737165451,0.08674030750989914,0.014762000180780888,-0.9828320145606995,0.09259800612926483,0.09149999916553497,0.6629999876022339,-0.45000001788139343
1699595100.8787773,-0.04031591862440109,0.11606097966432571,0.09040539711713791,0.009699000045657158,-1.0104039907455444,0.09351300448179245,0.09149999916553497,0.6629999876022339,-0.45000001788139343
1699595100.883803,-0.04031591862440109,0.11483928561210632,0.08796200156211853,0.01262700092047453,-0.9979600310325623,0.08967000246047974,0.08399999886751175,0.6614999771118164,-0.44850000739097595
1699595100.8888154,-0.03787253051996231,0.11483928561210632,0.08429691940546036,0.009211000055074692,-1.0107700824737549,0.08777900040149689,0.08399999886751175,0.6614999771118164,-0.44850000739097595
1699595100.8938732,-0.03420744836330414,0.12216944992542267,0.08674030750989914,0.00823500007390976,-1.0014979839324951,0.08247200399637222,0.09300000220537186,0.6570000052452087,-0.453000009059906
1699595100.8989558,-0.05008947476744652,0.11483928561210632,0.0916270911693573,0.00506300013512373,-1.0016200542449951,0.09436700493097305,0.09300000220537186,0.6570000052452087,-0.453000009059906
1699595100.9039633,-0.042759306728839874,0.11239589750766754,0.08551861345767975,0.007930000312626362,-0.995032012462616,0.09003600478172302,0.08250000327825546,0.6600000262260437,-0.45000001788139343
1699595100.909086,-0.04153761267662048,0.11606097966432571,0.08918370306491852,0.004575000144541264,-1.0071099996566772,0.08997500687837601,0.09300000220537186,0.6629999876022339,-0.4455000162124634
1699595100.914147,-0.04153761267662048,0.1172826737165451,0.09407047927379608,0.0032330001704394817,-1.010282039642334,0.0899140015244484,0.09300000220537186,0.6629999876022339,-0.4455000162124634
1699595100.9192388,-0.04153761267662048,0.1172826737165451,0.08796200156211853,0.009821000508964062,-0.9974720478057861,0.09387900680303574,0.08399999886751175,0.6675000190734863,-0.44850000739097595
1699595100.924176,-0.04031591862440109,0.11606097966432571,0.08674030750989914,0.006039000116288662,-1.0017420053482056,0.0895480066537857,0.08399999886751175,0.6675000190734863,-0.44850000739097595
1699595100.9286258,-0.04153761267662048,0.11361759155988693,0.09284878522157669,0.007015000097453594,-1.0031450986862183,0.08985300362110138,0.08399999886751175,0.6675000190734863,-0.44850000739097595
1699595100.9335973,-0.04031591862440109,0.1172826737165451,0.08918370306491852,0.009455000050365925,-1.0028400421142578,0.09021900594234467,0.09600000083446503,0.6629999876022339,-0.4424999952316284
1699595100.9385972,-0.042759306728839874,0.11361759155988693,0.09040539711713791,0.00884500052779913,-0.9994240403175354,0.0882670059800148,0.08699999749660492,0.6614999771118164,-0.4455000162124634
1699595100.9435961,-0.0390942245721817,0.11606097966432571,0.09529217332601547,0.009638000279664993,-1.0052800178527832,0.08759600669145584,0.08699999749660492,0.6614999771118164,-0.4455000162124634
1699595100.9485655,-0.043981000781059265,0.1172826737165451,0.08551861345767975,0.009882000274956226,-1.00832998752594,0.08649800717830658,0.08250000327825546,0.6660000085830688,-0.43799999356269836
1699595100.953563,-0.03298575058579445,0.11606097966432571,0.08674030750989914,0.007747000083327293,-1.0036330223083496,0.08668100088834763,0.08250000327825546,0.6660000085830688,-0.43799999356269836
1699595100.958574,-0.0390942245721817,0.11239589750766754,0.09040539711713791,0.01012600027024746,-0.9910060167312622,0.08521700650453568,0.09300000220537186,0.6629999876022339,-0.4455000162124634
1699595100.9635699,-0.03665083646774292,0.11606097966432571,0.09407047927379608,0.010553000494837761,-0.9957640171051025,0.0894870012998581,0.09300000220537186,0.6629999876022339,-0.4455000162124634
1699595100.9686322,-0.0390942245721817,0.10995250940322876,0.08918370306491852,0.007076000329107046,-1.0052800178527832,0.08607100695371628,0.09449999779462814,0.6570000052452087,-0.44850000739097595
1699595100.9736116,-0.042759306728839874,0.10995250940322876,0.09040539711713791,0.008906000293791294,-0.9990580677986145,0.08906000107526779,0.09449999779462814,0.6570000052452087,-0.44850000739097595
1699595100.978651,-0.03787253051996231,0.11117420345544815,0.09040539711713791,0.009455000050365925,-0.9994850158691406,0.09168300032615662,0.08399999886751175,0.6600000262260437,-0.44699999690055847
1699595100.983641,-0.04031591862440109,0.11117420345544815,0.08796200156211853,0.001403000089339912,-1.0012540817260742,0.08631500601768494,0.08399999886751175,0.6600000262260437,-0.44699999690055847
1699595100.9888518,-0.04031591862440109,0.10995250940322876,0.08674030750989914,-0.0013420000905171037,-1.0018030405044556,0.08558300137519836,0.08550000190734863,0.6600000262260437,-0.45000001788139343
1699595100.9939396,-0.04031591862440109,0.12216944992542267,0.08918370306491852,0.008479000069200993,-0.9997290372848511,0.08790100365877151,0.08550000190734863,0.6600000262260437,-0.45000001788139343
1699595100.9990275,-0.047646086663007736,0.1172826737165451,0.08551861345767975,0.006527000106871128,-1.0012540817260742,0.08973100036382675,0.09149999916553497,0.6614999771118164,-0.4410000145435333
1699595101.0040452,-0.0390942245721817,0.12339114397764206,0.08307522535324097,0.006893000099807978,-1.0060120820999146,0.0916220024228096,0.09149999916553497,0.6614999771118164,-0.4410000145435333
1699595101.0091777,-0.042759306728839874,0.11361759155988693,0.08796200156211853,0.007930000312626362,-1.0059510469436646,0.08747400343418121,0.0885000005364418,0.6644999980926514,-0.453000009059906
1699595101.0142362,-0.0390942245721817,0.130721315741539,0.08796200156211853,0.0034160001669079065,-1.0044260025024414,0.08942600339651108,0.0885000005364418,0.6644999980926514,-0.453000009059906
1699595101.019236,-0.04153761267662048,0.1172826737165451,0.08918370306491852,0.007015000097453594,-1.0041210651397705,0.09003600478172302,0.08699999749660492,0.6614999771118164,-0.44850000739097595
1699595101.0242357,-0.0390942245721817,0.11972606182098389,0.10140064358711243,0.006771000102162361,-1.0037550926208496,0.0878400057554245,0.08699999749660492,0.6614999771118164,-0.44850000739097595
1699595101.02927,-0.04886778071522713,0.1185043677687645,0.08796200156211853,0.007198000326752663,-1.0039989948272705,0.09156100451946259,0.08399999886751175,0.6614999771118164,-0.4514999985694885
1699595101.0343475,-0.03665083646774292,0.10995250940322876,0.08674030750989914,0.005978000350296497,-1.0017420053482056,0.0895480066537857,0.08399999886751175,0.6614999771118164,-0.4514999985694885
1699595101.0393457,-0.04153761267662048,0.1172826737165451,0.08674030750989914,0.005185000132769346,-1.001986026763916,0.0920490026473999,0.09000000357627869,0.6675000190734863,-0.453000009059906
1699595101.044329,-0.042759306728839874,0.12094775587320328,0.08674030750989914,0.006100000347942114,-1.0000340938568115,0.08881600201129913,0.09000000357627869,0.6675000190734863,-0.453000009059906
1699595101.0492904,-0.04153761267662048,0.1185043677687645,0.08551861345767975,0.007381000090390444,-1.0032060146331787,0.0894870012998581,0.07800000160932541,0.6600000262260437,-0.44850000739097595
1699595101.0543153,-0.0390942245721817,0.12705622613430023,0.0794101431965828,0.00695400033146143,-1.0035719871520996,0.08930400013923645,0.07800000160932541,0.6600000262260437,-0.44850000739097595
1699595101.0593214,-0.047646086663007736,0.11606097966432571,0.08796200156211853,0.0064050001092255116,-1.0009490251541138,0.08631500601768494,0.0885000005364418,0.6675000190734863,-0.43950000405311584
1699595101.0643163,-0.04031591862440109,0.12094775587320328,0.08918370306491852,0.006832000333815813,-1.0029619932174683,0.0861320048570633,0.0885000005364418,0.6675000190734863,-0.43950000405311584
1699595101.069429,-0.04031591862440109,0.11606097966432571,0.08796200156211853,0.007808000314980745,-1.0030230283737183,0.08777900040149689,0.09449999779462814,0.6614999771118164,-0.4424999952316284
1699595101.0734878,-0.045202698558568954,0.10995250940322876,0.07330167293548584,0.007320000324398279,-1.002108097076416,0.08924300223588943,0.09449999779462814,0.6614999771118164,-0.4424999952316284
1699595101.0786014,-0.042759306728839874,0.11972606182098389,0.0916270911693573,0.005734000355005264,-1.001924991607666,0.08704700320959091,0.09600000083446503,0.6660000085830688,-0.4620000123977661
1699595101.0835803,-0.05008947476744652,0.11606097966432571,0.08429691940546036,0.007869000546634197,-1.0025960206985474,0.08893800526857376,0.09600000083446503,0.6660000085830688,-0.4620000123977661
1699595101.08865,-0.03787253051996231,0.1172826737165451,0.08551861345767975,0.008784000761806965,-1.0005220174789429,0.08887699991464615,0.0885000005364418,0.6600000262260437,-0.453000009059906
1699595101.0937123,-0.04153761267662048,0.11972606182098389,0.08307522535324097,0.007320000324398279,-1.0036940574645996,0.08906000107526779,0.0885000005364418,0.6600000262260437,-0.453000009059906
1699595101.0986896,-0.0390942245721817,0.12094775587320328,0.08429691940546036,0.006344000343233347,-1.0014370679855347,0.09009700268507004,0.0885000005364418,0.6570000052452087,-0.453000009059906
1699595101.103714,-0.03787253051996231,0.11606097966432571,0.08674030750989914,0.007137000095099211,-1.0011320114135742,0.0891210064291954,0.0885000005364418,0.6570000052452087,-0.453000009059906
1699595101.1088014,-0.045202698558568954,0.11361759155988693,0.09040539711713791,0.008479000069200993,-0.9999730587005615,0.08765700459480286,0.0885000005364418,0.6629999876022339,-0.45000001788139343
1699595101.1138291,-0.0390942245721817,0.11972606182098389,0.08796200156211853,0.007625000085681677,-1.0014979839324951,0.08924300223588943,0.0885000005364418,0.6629999876022339,-0.45000001788139343
1699595101.1189263,-0.045202698558568954,0.11606097966432571,0.08429691940546036,0.007320000324398279,-1.0040600299835205,0.08716900646686554,0.09149999916553497,0.6554999947547913,-0.4440000057220459
1699595101.1239343,-0.043981000781059265,0.11972606182098389,0.08796200156211853,0.007747000083327293,-1.00387704372406,0.08802300691604614,0.09149999916553497,0.6554999947547913,-0.4440000057220459
1699595101.129062,-0.042759306728839874,0.11972606182098389,0.09284878522157669,0.007198000326752663,-1.0032670497894287,0.09082900732755661,0.08699999749660492,0.6629999876022339,-0.4455000162124634
1699595101.1341193,-0.046424392610788345,0.11972606182098389,0.08551861345767975,0.007625000085681677,-1.0018640756607056,0.08936500549316406,0.08699999749660492,0.6629999876022339,-0.4455000162124634
1699595101.1392334,-0.042759306728839874,0.1185043677687645,0.08551861345767975,0.008296000771224499,-1.0004000663757324,0.08790100365877151,0.0794999971985817,0.6704999804496765,-0.4455000162124634
1699595101.1442304,-0.04031591862440109,0.1185043677687645,0.08674030750989914,0.007442000322043896,-1.0054630041122437,0.08863300085067749,0.0794999971985817,0.6704999804496765,-0.4455000162124634
1699595101.1493173,-0.042759306728839874,0.11972606182098389,0.08674030750989914,0.005490000359714031,-1.002108097076416,0.09003600478172302,0.09300000220537186,0.6570000052452087,-0.4440000057220459
1699595101.1543748,-0.042759306728839874,0.1172826737165451,0.08551861345767975,0.007198000326752663,-1.0018640756607056,0.09009700268507004,0.09300000220537186,0.6570000052452087,-0.4440000057220459
1699595101.15937,-0.04153761267662048,0.11972606182098389,0.09040539711713791,0.007137000095099211,-1.0012540817260742,0.08967000246047974,0.08550000190734863,0.6600000262260437,-0.4544999897480011
1699595101.164368,-0.045202698558568954,0.11483928561210632,0.08918370306491852,0.004453000146895647,-1.0045480728149414,0.08899900317192078,0.08550000190734863,0.6600000262260437,-0.4544999897480011
1699595101.1685944,-0.045202698558568954,0.11972606182098389,0.08429691940546036,0.0046360003761947155,-1.0025349855422974,0.08857200294733047,0.09149999916553497,0.6660000085830688,-0.44850000739097595
1699595101.1736493,-0.043981000781059265,0.1185043677687645,0.09040539711713791,0.009272000752389431,-1.0032060146331787,0.0886940062046051,0.09149999916553497,0.6660000085830688,-0.44850000739097595
1699595101.1787572,-0.04886778071522713,0.1172826737165451,0.09040539711713791,0.007137000095099211,-1.0033280849456787,0.09028000384569168,0.0885000005364418,0.6660000085830688,-0.4440000057220459
1699595101.1837714,-0.03665083646774292,0.1172826737165451,0.08674030750989914,0.009577000513672829,-1.0012540817260742,0.08723000437021255,0.0885000005364418,0.6660000085830688,-0.4440000057220459
1699595101.188891,-0.04153761267662048,0.11972606182098389,0.08918370306491852,0.008601000532507896,-1.0029010772705078,0.0899140015244484,0.09300000220537186,0.6704999804496765,-0.45000001788139343
1699595101.1939516,-0.047646086663007736,0.12094775587320328,0.09284878522157669,0.00695400033146143,-1.0041210651397705,0.08838900178670883,0.09300000220537186,0.6704999804496765,-0.45000001788139343
1699595101.1990376,-0.04153761267662048,0.11606097966432571,0.08307522535324097,0.007198000326752663,-1.0032060146331787,0.09021900594234467,0.08699999749660492,0.6614999771118164,-0.453000009059906
1699595101.204051,-0.0390942245721817,0.1185043677687645,0.08674030750989914,0.007747000083327293,-1.0027180910110474,0.08680300414562225,0.08550000190734863,0.6644999980926514,-0.45899999141693115
1699595101.2092748,-0.042759306728839874,0.1172826737165451,0.08918370306491852,0.006771000102162361,-1.002108097076416,0.08985300362110138,0.08550000190734863,0.6644999980926514,-0.45899999141693115
1699595101.2143354,-0.045202698558568954,0.1185043677687645,0.08918370306491852,0.007930000312626362,-1.0030230283737183,0.08649800717830658,0.08550000190734863,0.6644999980926514,-0.4440000057220459
1699595101.2193367,-0.045202698558568954,0.12094775587320328,0.08796200156211853,0.007808000314980745,-1.004304051399231,0.0916220024228096,0.08550000190734863,0.6644999980926514,-0.4440000057220459
1699595101.224332,-0.04153761267662048,0.1172826737165451,0.08551861345767975,0.00823500007390976,-1.0058900117874146,0.08771800249814987,0.09300000220537186,0.6644999980926514,-0.44699999690055847
1699595101.2294793,-0.045202698558568954,0.12705622613430023,0.08918370306491852,0.007259000092744827,-1.0016200542449951,0.08838900178670883,0.09300000220537186,0.6644999980926514,-0.44699999690055847
1699595101.2335544,-0.042759306728839874,0.11606097966432571,0.08918370306491852,0.004453000146895647,-1.0025960206985474,0.090768001973629,0.09300000220537186,0.6644999980926514,-0.44699999690055847
1699595101.2385414,-0.04031591862440109,0.11361759155988693,0.08185353130102158,0.008479000069200993,-1.0011320114135742,0.08881600201129913,0.08699999749660492,0.6629999876022339,-0.4440000057220459
1699595101.2435338,-0.043981000781059265,0.1172826737165451,0.08551861345767975,0.006039000116288662,-1.0035719871520996,0.0899140015244484,0.0885000005364418,0.6690000295639038,-0.453000009059906
1699595101.2486365,-0.045202698558568954,0.1185043677687645,0.08429691940546036,0.005368000362068415,-0.9999120235443115,0.0891210064291954,0.0885000005364418,0.6690000295639038,-0.453000009059906
1699595101.253697,-0.046424392610788345,0.11483928561210632,0.08796200156211853,0.00823500007390976,-0.9995460510253906,0.0869860053062439,0.08250000327825546,0.6614999771118164,-0.453000009059906
1699595101.2587147,-0.045202698558568954,0.11972606182098389,0.09040539711713791,0.00884500052779913,-1.0030840635299683,0.0869860053062439,0.08250000327825546,0.6614999771118164,-0.453000009059906
1699595101.2637014,-0.042759306728839874,0.1185043677687645,0.08674030750989914,0.009211000055074692,-1.0069270133972168,0.08887699991464615,0.09000000357627869,0.6570000052452087,-0.45000001788139343
1699595101.2688835,-0.045202698558568954,0.10995250940322876,0.08429691940546036,0.0064050001092255116,-1.002413034439087,0.08814500272274017,0.09000000357627869,0.6570000052452087,-0.45000001788139343
1699595101.2739556,-0.046424392610788345,0.11483928561210632,0.08674030750989914,0.007930000312626362,-1.0041210651397705,0.08936500549316406,0.08699999749660492,0.6600000262260437,-0.4544999897480011
1699595101.2790394,-0.042759306728839874,0.12583453953266144,0.08796200156211853,0.00884500052779913,-1.0028400421142578,0.08686400204896927,0.08699999749660492,0.6600000262260437,-0.4544999897480011
1699595101.284028,-0.0390942245721817,0.12094775587320328,0.08551861345767975,0.007747000083327293,-1.0050970315933228,0.0899140015244484,0.08699999749660492,0.6644999980926514,-0.45000001788139343
1699595101.2889767,-0.0390942245721817,0.12339114397764206,0.09651386737823486,0.005551000125706196,-1.0025349855422974,0.08796200156211853,0.08699999749660492,0.6644999980926514,-0.45000001788139343
1699595101.293975,-0.045202698558568954,0.1172826737165451,0.0916270911693573,0.007686000317335129,-1.0032060146331787,0.08771800249814987,0.09149999916553497,0.6554999947547913,-0.4440000057220459
1699595101.2985456,-0.043981000781059265,0.11972606182098389,0.08796200156211853,0.01012600027024746,-1.002108097076416,0.09021900594234467,0.09149999916553497,0.6554999947547913,-0.4440000057220459
1699595101.303552,-0.045202698558568954,0.1185043677687645,0.08674030750989914,0.009760000742971897,-1.0007050037384033,0.08936500549316406,0.09750000387430191,0.6614999771118164,-0.4514999985694885
1699595101.3085938,-0.042759306728839874,0.11972606182098389,0.09040539711713791,0.010370000265538692,-1.0012540817260742,0.08930400013923645,0.09750000387430191,0.6614999771118164,-0.4514999985694885
1699595101.3136919,-0.043981000781059265,0.1172826737165451,0.08185353130102158,0.009089000523090363,-1.0055240392684937,0.08960900455713272,0.08250000327825546,0.6600000262260437,-0.45899999141693115
1699595101.3186796,-0.043981000781059265,0.1185043677687645,0.08551861345767975,0.009272000752389431,-1.004304051399231,0.08899900317192078,0.08250000327825546,0.6600000262260437,-0.45899999141693115
1699595101.3236594,-0.045202698558568954,0.11972606182098389,0.0916270911693573,0.008174000307917595,-1.006500005722046,0.08930400013923645,0.09300000220537186,0.6570000052452087,-0.44850000739097595
1699595101.3287003,-0.046424392610788345,0.11972606182098389,0.08796200156211853,0.010370000265538692,-0.9993020296096802,0.08997500687837601,0.09300000220537186,0.6570000052452087,-0.44850000739097595
1699595101.3337574,-0.045202698558568954,0.11483928561210632,0.09040539711713791,0.0061610001139342785,-1.002413034439087,0.08765700459480286,0.08250000327825546,0.6585000157356262,-0.453000009059906
1699595101.3388603,-0.043981000781059265,0.1185043677687645,0.08918370306491852,0.008601000532507896,-1.004365086555481,0.08802300691604614,0.08250000327825546,0.6585000157356262,-0.453000009059906
1699595101.3438406,-0.043981000781059265,0.12094775587320328,0.09040539711713791,0.007625000085681677,-1.0015590190887451,0.09070700407028198,0.09300000220537186,0.6600000262260437,-0.43799999356269836
1699595101.348821,-0.03787253051996231,0.12216944992542267,0.09529217332601547,0.006527000106871128,-1.0032060146331787,0.08881600201129913,0.09300000220537186,0.6600000262260437,-0.43799999356269836
1699595101.353882,-0.042759306728839874,0.1185043677687645,0.0916270911693573,0.00811300054192543,-1.0016810894012451,0.08820600062608719,0.08399999886751175,0.6644999980926514,-0.4440000057220459
1699595101.3589904,-0.043981000781059265,0.11361759155988693,0.08918370306491852,0.007930000312626362,-1.0055240392684937,0.08918200433254242,0.08399999886751175,0.6644999980926514,-0.4440000057220459
1699595101.3639922,-0.042759306728839874,0.1172826737165451,0.08429691940546036,0.006283000111579895,-1.0018640756607056,0.09168300032615662,0.09149999916553497,0.6644999980926514,-0.4455000162124634
1699595101.3689978,-0.042759306728839874,0.12583453953266144,0.08429691940546036,0.007625000085681677,-1.0047920942306519,0.08924300223588943,0.09149999916553497,0.6644999980926514,-0.4455000162124634
1699595101.374049,-0.045202698558568954,0.11972606182098389,0.08796200156211853,0.007198000326752663,-1.0013760328292847,0.08985300362110138,0.08550000190734863,0.6600000262260437,-0.4410000145435333
1699595101.3791451,-0.042759306728839874,0.12094775587320328,0.08918370306491852,0.00469700014218688,-1.0021690130233765,0.0891210064291954,0.08550000190734863,0.6600000262260437,-0.4410000145435333
1699595101.3841445,-0.04031591862440109,0.1172826737165451,0.08674030750989914,0.00695400033146143,-1.0040600299835205,0.08796200156211853,0.08399999886751175,0.6614999771118164,-0.4544999897480011
1699595101.3893082,-0.03787253051996231,0.11606097966432571,0.0794101431965828,0.005856000352650881,-1.004304051399231,0.08942600339651108,0.08399999886751175,0.6614999771118164,-0.4544999897480011
1699595101.3943646,-0.0390942245721817,0.12094775587320328,0.08551861345767975,0.005856000352650881,-1.0033280849456787,0.08906000107526779,0.09750000387430191,0.6614999771118164,-0.44850000739097595
1699595101.399389,-0.04886778071522713,0.11239589750766754,0.08551861345767975,0.008906000293791294,-1.0022300481796265,0.08930400013923645,0.09750000387430191,0.6614999771118164,-0.44850000739097595
1699595101.4043646,-0.045202698558568954,0.11972606182098389,0.08796200156211853,0.0061610001139342785,-1.005645990371704,0.08863300085067749,0.0794999971985817,0.6614999771118164,-0.44850000739097595
1699595101.4095194,-0.042759306728839874,0.12461283802986145,0.10384403169155121,0.006527000106871128,-1.0031450986862183,0.0895480066537857,0.0794999971985817,0.6614999771118164,-0.44850000739097595
1699595101.4135861,-0.04153761267662048,0.1172826737165451,0.08796200156211853,0.00469700014218688,-1.0025349855422974,0.0891210064291954,0.09750000387430191,0.6660000085830688,-0.4560000002384186
1699595101.4185803,-0.04031591862440109,0.12094775587320328,0.08307522535324097,0.00750300008803606,-1.0007660388946533,0.09064600616693497,0.09750000387430191,0.6660000085830688,-0.4560000002384186
1699595101.4235816,-0.043981000781059265,0.12094775587320328,0.08918370306491852,0.00695400033146143,-1.0025960206985474,0.08857200294733047,0.08399999886751175,0.6629999876022339,-0.453000009059906
1699595101.428586,-0.042759306728839874,0.12216944992542267,0.07696675509214401,0.007869000546634197,-1.0022300481796265,0.08497299998998642,0.08399999886751175,0.6629999876022339,-0.453000009059906
1699595101.433625,-0.042759306728839874,0.11606097966432571,0.08429691940546036,0.00658800033852458,-1.00381600856781,0.08924300223588943,0.09000000357627869,0.6660000085830688,-0.4544999897480011
1699595101.4386537,-0.042759306728839874,0.11606097966432571,0.08918370306491852,0.008052000775933266,-1.002108097076416,0.08796200156211853,0.09000000357627869,0.6660000085830688,-0.4544999897480011
1699595101.443654,-0.043981000781059265,0.11606097966432571,0.09284878522157669,0.00658800033852458,-1.0035719871520996,0.0911950021982193,0.08399999886751175,0.6539999842643738,-0.4440000057220459
1699595101.4486532,-0.043981000781059265,0.1185043677687645,0.08796200156211853,0.005551000125706196,-1.0055850744247437,0.08838900178670883,0.08399999886751175,0.6539999842643738,-0.4440000057220459
1699595101.4536483,-0.042759306728839874,0.11483928561210632,0.08918370306491852,0.007991000078618526,-1.0036940574645996,0.09284200519323349,0.0885000005364418,0.6660000085830688,-0.45000001788139343
1699595101.4586537,-0.047646086663007736,0.11606097966432571,0.08918370306491852,0.0048800003714859486,-1.0018640756607056,0.08960900455713272,0.0885000005364418,0.6660000085830688,-0.45000001788139343
1699595101.4636455,-0.042759306728839874,0.1172826737165451,0.08551861345767975,0.005978000350296497,-1.002474069595337,0.08906000107526779,0.09000000357627869,0.6570000052452087,-0.4424999952316284
1699595101.4686654,-0.03665083646774292,0.11606097966432571,0.08185353130102158,0.008296000771224499,-1.0030840635299683,0.08924300223588943,0.09000000357627869,0.6570000052452087,-0.4424999952316284
1699595101.4736512,-0.045202698558568954,0.1172826737165451,0.08796200156211853,0.008418000303208828,-1.0035719871520996,0.0920490026473999,0.09149999916553497,0.6675000190734863,-0.45000001788139343
1699595101.4786644,-0.042759306728839874,0.12216944992542267,0.09407047927379608,0.007259000092744827,-1.0014979839324951,0.0899140015244484,0.09149999916553497,0.6675000190734863,-0.45000001788139343
1699595101.4836383,-0.04031591862440109,0.11606097966432571,0.08918370306491852,0.005307000130414963,-1.0014370679855347,0.08930400013923645,0.09449999779462814,0.6585000157356262,-0.45000001788139343
1699595101.4886856,-0.043981000781059265,0.1185043677687645,0.08918370306491852,0.0067100003361701965,-1.004304051399231,0.08881600201129913,0.09449999779462814,0.6585000157356262,-0.45000001788139343
1699595101.4937487,-0.04031591862440109,0.11972606182098389,0.08429691940546036,0.005734000355005264,-1.00381600856781,0.08820600062608719,0.0989999994635582,0.6585000157356262,-0.4424999952316284
1699595101.4988751,-0.05008947476744652,0.11606097966432571,0.09040539711713791,0.007320000324398279,-1.0022300481796265,0.09082900732755661,0.0989999994635582,0.6585000157356262,-0.4424999952316284
1699595101.5038505,-0.04153761267662048,0.11606097966432571,0.08674030750989914,0.005490000359714031,-1.00393807888031,0.08893800526857376,0.09149999916553497,0.6600000262260437,-0.4410000145435333
1699595101.5089478,-0.0390942245721817,0.1172826737165451,0.08796200156211853,0.007320000324398279,-1.002474069595337,0.0895480066537857,0.09149999916553497,0.6600000262260437,-0.4410000145435333
1699595101.5139406,-0.043981000781059265,0.12094775587320328,0.08796200156211853,0.005795000120997429,-1.0029619932174683,0.08918200433254242,0.09449999779462814,0.6554999947547913,-0.45000001788139343
1699595101.5190985,-0.043981000781059265,0.1172826737165451,0.08796200156211853,0.0064660003408789635,-1.0036940574645996,0.08729100227355957,0.09449999779462814,0.6554999947547913,-0.45000001788139343
1699595101.5241487,-0.04031591862440109,0.1185043677687645,0.09040539711713791,0.009943000040948391,-1.0030230283737183,0.08759600669145584,0.08699999749660492,0.6585000157356262,-0.4514999985694885
1699595101.529244,-0.04153761267662048,0.1172826737165451,0.08918370306491852,0.007625000085681677,-1.0053410530090332,0.0903410017490387,0.08699999749660492,0.6585000157356262,-0.4514999985694885
1699595101.5342445,-0.045202698558568954,0.11606097966432571,0.08918370306491852,0.00695400033146143,-1.0036330223083496,0.08808400481939316,0.08399999886751175,0.6614999771118164,-0.44850000739097595
1699595101.539369,-0.04153761267662048,0.11483928561210632,0.08796200156211853,0.007747000083327293,-1.0016200542449951,0.0899140015244484,0.08399999886751175,0.6614999771118164,-0.44850000739097595
1699595101.544433,-0.045202698558568954,0.12216944992542267,0.09529217332601547,0.008723000064492226,-1.0005830526351929,0.09113400429487228,0.08699999749660492,0.6554999947547913,-0.44850000739097595
1699595101.5494494,-0.046424392610788345,0.1185043677687645,0.08796200156211853,0.005856000352650881,-1.0045480728149414,0.08893800526857376,0.08699999749660492,0.6554999947547913,-0.44850000739097595
1699595101.5544307,-0.04153761267662048,0.1185043677687645,0.0916270911693573,0.007320000324398279,-1.0008879899978638,0.08875500410795212,0.09149999916553497,0.6629999876022339,-0.4514999985694885
1699595101.559363,-0.045202698558568954,0.1185043677687645,0.09407047927379608,0.004453000146895647,-1.0028400421142578,0.08649800717830658,0.09149999916553497,0.6629999876022339,-0.4514999985694885
1699595101.5643628,-0.043981000781059265,0.12216944992542267,0.09040539711713791,0.00695400033146143,-1.0013760328292847,0.08790100365877151,0.0989999994635582,0.6600000262260437,-0.4440000057220459
1699595101.5693626,-0.043981000781059265,0.1172826737165451,0.08429691940546036,0.01012600027024746,-1.004304051399231,0.08979200571775436,0.0989999994635582,0.6600000262260437,-0.4440000057220459
1699595101.5744057,-0.043981000781059265,0.11972606182098389,0.09651386737823486,0.007320000324398279,-1.006134033203125,0.09211000055074692,0.09300000220537186,0.6600000262260437,-0.4514999985694885
1699595101.5786262,-0.03787253051996231,0.12583453953266144,0.10384403169155121,0.005673000123351812,-1.006622076034546,0.0899140015244484,0.09300000220537186,0.6600000262260437,-0.4514999985694885
1699595101.5836678,-0.043981000781059265,0.11239589750766754,0.08429691940546036,0.006100000347942114,-1.0035719871520996,0.09003600478172302,0.08699999749660492,0.6585000157356262,-0.4514999985694885
1699595101.5886838,-0.046424392610788345,0.1172826737165451,0.08796200156211853,0.006771000102162361,-1.0028400421142578,0.08936500549316406,0.08699999749660492,0.6585000157356262,-0.4514999985694885
1699595101.5936875,-0.045202698558568954,0.12094775587320328,0.0916270911693573,0.007198000326752663,-1.0058900117874146,0.08838900178670883,0.09300000220537186,0.6570000052452087,-0.4514999985694885
1699595101.5986216,-0.046424392610788345,0.1172826737165451,0.08796200156211853,0.007259000092744827,-1.0018640756607056,0.0886940062046051,0.09300000220537186,0.6570000052452087,-0.4514999985694885
1699595101.603685,-0.042759306728839874,0.11483928561210632,0.08796200156211853,0.008784000761806965,-1.0009490251541138,0.08796200156211853,0.0885000005364418,0.6570000052452087,-0.4424999952316284
1699595101.6086802,-0.04886778071522713,0.1172826737165451,0.08918370306491852,0.00811300054192543,-1.0040600299835205,0.08723000437021255,0.0885000005364418,0.6570000052452087,-0.4424999952316284
1699595101.6136801,-0.045202698558568954,0.1185043677687645,0.08918370306491852,0.005490000359714031,-1.0009490251541138,0.08875500410795212,0.09149999916553497,0.6614999771118164,-0.453000009059906
1699595101.6186619,-0.043981000781059265,0.11239589750766754,0.08918370306491852,0.006649000104516745,-1.0029010772705078,0.08893800526857376,0.09149999916553497,0.6614999771118164,-0.453000009059906
1699595101.623727,-0.042759306728839874,0.11483928561210632,0.09040539711713791,0.00658800033852458,-1.005768060684204,0.0869860053062439,0.0989999994635582,0.6675000190734863,-0.44699999690055847
1699595101.6287146,-0.042759306728839874,0.12094775587320328,0.08429691940546036,0.008174000307917595,-1.0013149976730347,0.08790100365877151,0.0989999994635582,0.6675000190734863,-0.44699999690055847
1699595101.633732,-0.043981000781059265,0.11972606182098389,0.09040539711713791,0.005795000120997429,-1.0028400421142578,0.08704700320959091,0.09449999779462814,0.6660000085830688,-0.44850000739097595
1699595101.6387718,-0.043981000781059265,0.1172826737165451,0.08551861345767975,0.007564000319689512,-1.0044260025024414,0.0895480066537857,0.09449999779462814,0.6660000085830688,-0.44850000739097595
1699595101.643833,-0.04031591862440109,0.11606097966432571,0.08918370306491852,0.005307000130414963,-1.0068660974502563,0.08710800111293793,0.09300000220537186,0.6554999947547913,-0.453000009059906
1699595101.6489334,-0.0390942245721817,0.1172826737165451,0.09040539711713791,0.008967000059783459,-1.002108097076416,0.08881600201129913,0.09300000220537186,0.6554999947547913,-0.453000009059906
1699595101.6539338,-0.0390942245721817,0.11483928561210632,0.08307522535324097,0.007259000092744827,-1.0025960206985474,0.09113400429487228,0.08250000327825546,0.6614999771118164,-0.44850000739097595
1699595101.658895,-0.042759306728839874,0.1172826737165451,0.08674030750989914,0.007320000324398279,-1.0044260025024414,0.08924300223588943,0.08250000327825546,0.6614999771118164,-0.44850000739097595
1699595101.6639533,-0.042759306728839874,0.12461283802986145,0.09407047927379608,0.009150000289082527,-1.0005220174789429,0.09040200710296631,0.0885000005364418,0.6600000262260437,-0.4455000162124634
1699595101.6690404,-0.043981000781059265,0.11239589750766754,0.08918370306491852,0.005917000118643045,-1.0033280849456787,0.08936500549316406,0.0885000005364418,0.6600000262260437,-0.4455000162124634
1699595101.674061,-0.045202698558568954,0.1185043677687645,0.08429691940546036,0.007320000324398279,-0.9994240403175354,0.08832800388336182,0.0885000005364418,0.6570000052452087,-0.453000009059906
1699595101.679045,-0.045202698558568954,0.1172826737165451,0.0916270911693573,0.007808000314980745,-1.0035719871520996,0.08893800526857376,0.0885000005364418,0.6570000052452087,-0.453000009059906
1699595101.6840978,-0.04153761267662048,0.11606097966432571,0.09407047927379608,0.00622200034558773,-1.0044260025024414,0.0891210064291954,0.09149999916553497,0.6614999771118164,-0.44699999690055847
1699595101.6892002,-0.043981000781059265,0.1185043677687645,0.08796200156211853,0.0064660003408789635,-1.0018640756607056,0.08997500687837601,0.09149999916553497,0.6614999771118164,-0.44699999690055847
1699595101.6941972,-0.043981000781059265,0.1185043677687645,0.09040539711713791,0.008296000771224499,-1.0050359964370728,0.08893800526857376,0.09149999916553497,0.6629999876022339,-0.4544999897480011
1699595101.6993902,-0.045202698558568954,0.12216944992542267,0.08674030750989914,0.00811300054192543,-1.0047920942306519,0.08863300085067749,0.09149999916553497,0.6629999876022339,-0.4544999897480011
1699595101.7044303,-0.045202698558568954,0.11483928561210632,0.08674030750989914,0.006893000099807978,-1.0030840635299683,0.08729100227355957,0.08699999749660492,0.6570000052452087,-0.453000009059906
1699595101.7094314,-0.043981000781059265,0.1185043677687645,0.0916270911693573,0.006344000343233347,-1.0033280849456787,0.09021900594234467,0.08699999749660492,0.6570000052452087,-0.453000009059906
1699595101.7144434,-0.04153761267662048,0.1185043677687645,0.08918370306491852,0.007869000546634197,-1.0072320699691772,0.08918200433254242,0.0885000005364418,0.671999990940094,-0.45000001788139343
1699595101.7194843,-0.043981000781059265,0.1172826737165451,0.08796200156211853,0.006771000102162361,-1.006195068359375,0.08845000714063644,0.0885000005364418,0.671999990940094,-0.45000001788139343
1699595101.723547,-0.045202698558568954,0.11483928561210632,0.08918370306491852,0.00811300054192543,-1.0034500360488892,0.08845000714063644,0.08100000023841858,0.6629999876022339,-0.4560000002384186
1699595101.7285392,-0.04031591862440109,0.11483928561210632,0.08918370306491852,0.008052000775933266,-1.0036940574645996,0.08893800526857376,0.08100000023841858,0.6629999876022339,-0.4560000002384186
1699595101.733547,-0.043981000781059265,0.11606097966432571,0.08551861345767975,0.004270000383257866,-1.0025960206985474,0.08924300223588943,0.09000000357627869,0.6600000262260437,-0.45000001788139343
1699595101.7385988,-0.042759306728839874,0.11361759155988693,0.08918370306491852,0.004270000383257866,-1.0049140453338623,0.08838900178670883,0.09000000357627869,0.6600000262260437,-0.45000001788139343
1699595101.743666,-0.04886778071522713,0.1172826737165451,0.08796200156211853,0.008784000761806965,-1.0049140453338623,0.0911950021982193,0.0885000005364418,0.6614999771118164,-0.45000001788139343
1699595101.7486603,-0.04031591862440109,0.12094775587320328,0.08918370306491852,0.007015000097453594,-1.0008879899978638,0.08796200156211853,0.0885000005364418,0.6614999771118164,-0.45000001788139343
1699595101.753665,-0.04153761267662048,0.11606097966432571,0.08429691940546036,0.00823500007390976,-1.0028400421142578,0.08716900646686554,0.0885000005364418,0.6600000262260437,-0.44850000739097595
1699595101.7586837,-0.04153761267662048,0.11972606182098389,0.09040539711713791,0.007869000546634197,-1.0036330223083496,0.09125600010156631,0.0885000005364418,0.6600000262260437,-0.44850000739097595
1699595101.7637255,-0.03665083646774292,0.12094775587320328,0.08796200156211853,0.004209000151604414,-1.0073540210723877,0.0886940062046051,0.0885000005364418,0.6614999771118164,-0.453000009059906
1699595101.7687244,-0.043981000781059265,0.11972606182098389,0.09040539711713791,0.007137000095099211,-1.0007660388946533,0.08729100227355957,0.0885000005364418,0.6614999771118164,-0.453000009059906
1699595101.7737176,-0.045202698558568954,0.1185043677687645,0.09284878522157669,0.007137000095099211,-1.0027180910110474,0.08845000714063644,0.08699999749660492,0.6570000052452087,-0.4514999985694885
1699595101.7788358,-0.046424392610788345,0.1172826737165451,0.09284878522157669,0.00750300008803606,-1.0014979839324951,0.08802300691604614,0.08699999749660492,0.6570000052452087,-0.4514999985694885
1699595101.7838902,-0.043981000781059265,0.1172826737165451,0.08918370306491852,0.0064050001092255116,-1.0030840635299683,0.08887699991464615,0.08399999886751175,0.6600000262260437,-0.44850000739097595
1699595101.7889802,-0.043981000781059265,0.12094775587320328,0.09529217332601547,0.0029890001751482487,-1.0051580667495728,0.08838900178670883,0.08399999886751175,0.6600000262260437,-0.44850000739097595
1699595101.7939801,-0.043981000781059265,0.12339114397764206,0.09040539711713791,0.006649000104516745,-1.005768060684204,0.08692499995231628,0.08699999749660492,0.6570000052452087,-0.4514999985694885
1699595101.799183,-0.0390942245721817,0.11483928561210632,0.08551861345767975,0.005673000123351812,-1.0032060146331787,0.08881600201129913,0.08699999749660492,0.6570000052452087,-0.4514999985694885
1699595101.8042293,-0.043981000781059265,0.11361759155988693,0.08307522535324097,0.005734000355005264,-1.0022300481796265,0.08668100088834763,0.09000000357627869,0.6585000157356262,-0.45000001788139343
1699595101.8093092,-0.04031591862440109,0.1185043677687645,0.08551861345767975,0.006039000116288662,-1.0017420053482056,0.09082900732755661,0.09000000357627869,0.6675000190734863,-0.44699999690055847
1699595101.8143086,-0.043981000781059265,0.11606097966432571,0.08918370306491852,0.007381000090390444,-1.0017420053482056,0.09028000384569168,0.09000000357627869,0.6675000190734863,-0.44699999690055847
1699595101.8194308,-0.04153761267662048,0.11361759155988693,0.08674030750989914,0.008174000307917595,-1.0034500360488892,0.0903410017490387,0.09300000220537186,0.6660000085830688,-0.44850000739097595
1699595101.8234904,-0.047646086663007736,0.11483928561210632,0.08429691940546036,0.005795000120997429,-1.004243016242981,0.08906000107526779,0.09300000220537186,0.6660000085830688,-0.44850000739097595
1699595101.828505,-0.04153761267662048,0.11606097966432571,0.09040539711713791,0.008784000761806965,-1.001986026763916,0.09046300500631332,0.09300000220537186,0.6660000085830688,-0.44850000739097595
1699595101.833522,-0.042759306728839874,0.11606097966432571,0.08674030750989914,0.00622200034558773,-1.0011930465698242,0.09070700407028198,0.08250000327825546,0.6614999771118164,-0.4440000057220459
1699595101.838529,-0.043981000781059265,0.11483928561210632,0.08429691940546036,0.005978000350296497,-1.0033280849456787,0.09003600478172302,0.08250000327825546,0.6614999771118164,-0.4440000057220459
1699595101.8435822,-0.043981000781059265,0.1185043677687645,0.09284878522157669,0.007991000078618526,-1.0036330223083496,0.08893800526857376,0.08699999749660492,0.6675000190734863,-0.4544999897480011
1699595101.8485618,-0.042759306728839874,0.11972606182098389,0.0916270911693573,0.007015000097453594,-1.0035719871520996,0.0903410017490387,0.08699999749660492,0.6675000190734863,-0.4544999897480011
1699595101.8535786,-0.258999228477478,0.23823043704032898,0.09773556143045425,0.12584300339221954,-1.089582085609436,0.21026700735092163,0.09000000357627869,0.6644999980926514,-0.453000009059906
1699595101.858691,-1.5710991621017456,1.2571237087249756,0.629172682762146,-0.18989300727844238,-1.352370023727417,-1.1167880296707153,0.09000000357627869,0.6644999980926514,-0.453000009059906
1699595101.863827,-3.48915958404541,2.8831989765167236,3.5074849128723145,0.3353170156478882,-1.9966521263122559,-0.8301490545272827,0.08100000023841858,0.6629999876022339,-0.44850000739097595
1699595101.8690581,-3.9680638313293457,3.500154733657837,5.931326866149902,1.002474069595337,-1.9966521263122559,-0.8903560638427734,0.10350000113248825,0.671999990940094,-0.43799999356269836
1699595101.8740528,-3.9790589809417725,3.366990089416504,5.190979957580566,1.5858780145645142,-1.7083660364151,0.37722402811050415,0.10350000113248825,0.671999990940094,-0.43799999356269836
1699595101.8791273,-2.785463571548462,2.936953544616699,3.927747964859009,-0.09924700111150742,-0.05111800134181976,0.08521700650453568,0.1274999976158142,0.6704999804496765,-0.4155000150203705
1699595101.8841603,-1.0616525411605835,1.30476975440979,1.5527737140655518,1.0475530624389648,0.16738401353359222,0.32342201471328735,0.1274999976158142,0.6704999804496765,-0.4155000150203705
1699595101.8892772,-0.15149012207984924,0.5998520255088806,1.374406337738037,0.3308030068874359,0.2509540021419525,0.5127050280570984,0.148499995470047,0.6675000190734863,-0.4124999940395355
1699595101.8942842,0.8429692387580872,-0.2101314514875412,-0.8173136115074158,0.387472003698349,0.4279150068759918,0.4568290114402771,0.148499995470047,0.6675000190734863,-0.4124999940395355
1699595101.8992474,1.1752700805664062,-0.629172682762146,-0.7110261917114258,-0.4413350224494934,-1.9966521263122559,0.7484700083732605,0.14399999380111694,0.671999990940094,-0.414000004529953
1699595101.9043381,1.595533013343811,-1.0531007051467896,-2.3395450115203857,-1.641571044921875,0.0861320048570633,0.5008710026741028,0.14399999380111694,0.671999990940094,-0.414000004529953
1699595101.9093242,2.3383233547210693,-0.7488987445831299,-2.4494974613189697,-0.6544080376625061,0.32299500703811646,0.2013000100851059,0.14550000429153442,0.6735000014305115,-0.42149999737739563
1699595101.9143136,2.3761959075927734,-0.6389462351799011,-3.859333038330078,-1.1175810098648071,0.0752130001783371,0.05435100197792053,0.14550000429153442,0.6735000014305115,-0.42149999737739563
1699595101.9193895,2.282125473022461,-2.6132044792175293,-3.8092434406280518,-0.5560760498046875,-1.4673550128936768,-0.19574901461601257,0.1185000017285347,0.6675000190734863,-0.4245000183582306
1699595101.9244525,2.1416304111480713,-2.294342279434204,-3.332782745361328,-0.7893400192260742,-1.3044240474700928,-0.02781600132584572,0.1185000017285347,0.6675000190734863,-0.4245000183582306
1699595101.929454,1.9852535724639893,-1.5759859085083008,-2.936953544616699,-0.7871440052986145,-1.2348840236663818,0.19007600843906403,0.1080000028014183,0.6690000295639038,-0.4410000145435333
1699595101.9344535,-0.6132906675338745,-0.8478559851646423,0.786771297454834,0.5222820043563843,-1.5553780794143677,1.0660970211029053,0.1080000028014183,0.6690000295639038,-0.4410000145435333
1699595101.9384885,-0.4471401870250702,-0.9101623892784119,1.4452645778656006,-0.35782602429389954,0.19361400604248047,0.021106000989675522,0.09149999916553497,0.6600000262260437,-0.4424999952316284
1699595101.9435532,-0.1979145109653473,-1.1056334972381592,0.37383851408958435,-0.3047560155391693,0.6149410009384155,-0.4628070294857025,0.09149999916553497,0.6600000262260437,-0.4424999952316284
1699595101.9485652,-0.12216944992542267,-1.1496145725250244,0.009773556143045425,-0.030744001269340515,-0.904386043548584,0.791109025478363,0.0885000005364418,0.6614999771118164,-0.4455000162124634
1699595101.9535527,0.06352811306715012,-1.2387982606887817,-0.27121618390083313,0.06459899991750717,-0.7586570382118225,-0.1743990033864975,0.0885000005364418,0.6614999771118164,-0.4455000162124634
1699595101.9586053,0.11483928561210632,-1.2290246486663818,-0.342074453830719,0.013359000906348228,-1.0583500862121582,0.24888001382350922,0.08250000327825546,0.6570000052452087,-0.4455000162124634
1699595101.9636571,0.17348061501979828,-1.2009257078170776,-0.3298575282096863,0.6346440315246582,-1.7487480640411377,-0.17854700982570648,0.08250000327825546,0.6570000052452087,-0.4455000162124634
1699595101.9686491,-0.08063183724880219,-1.1459494829177856,0.42392799258232117,0.17629000544548035,-1.250683069229126,-0.27041301131248474,0.08550000190734863,0.6675000190734863,-0.4440000057220459
1699595101.9736576,0.2480039894580841,-1.155722975730896,0.23334364593029022,0.2298480123281479,-1.0149180889129639,-0.3487370014190674,0.08550000190734863,0.6675000190734863,-0.4440000057220459
1699595101.97867,0.767224133014679,-1.0946383476257324,-0.21990501880645752,-0.6540420055389404,-1.6075330972671509,-0.14444801211357117,0.08250000327825546,0.6644999980926514,-0.4424999952316284
1699595101.9836898,0.9419264793395996,-0.7024743556976318,0.3139754831790924,-0.058316003531217575,-1.056886076927185,-0.11077600717544556,0.08250000327825546,0.6644999980926514,-0.4424999952316284
1699595101.9886558,1.557660460472107,-0.45324867963790894,-0.08796200156211853,-0.2921900153160095,-1.951024055480957,0.043188001960515976,0.07649999856948853,0.6600000262260437,-0.43950000405311584
1699595101.9936533,1.7592401504516602,-0.0916270911693573,0.47646087408065796,-0.17348401248455048,-0.941230058670044,-0.26364201307296753,0.07649999856948853,0.6600000262260437,-0.43950000405311584
1699595101.998749,2.0585553646087646,0.2883199155330658,0.6328377723693848,0.012322000227868557,-1.6849421262741089,-0.2000190019607544,0.0794999971985817,0.6570000052452087,-0.4514999985694885
1699595102.0036554,2.1966066360473633,0.730573296546936,1.0897514820098877,0.2996320128440857,-1.7279471158981323,0.039772000163793564,0.0794999971985817,0.6570000052452087,-0.4514999985694885
1699595102.0086675,2.222262382507324,1.1202938556671143,1.6688346862792969,0.2681560218334198,-0.774090051651001,0.27224302291870117,0.08550000190734863,0.6585000157356262,-0.46650001406669617
1699595102.013658,1.9143953323364258,1.5478869676589966,2.351762056350708,-0.26748502254486084,-1.2596499919891357,0.20477700233459473,0.08550000190734863,0.6585000157356262,-0.46650001406669617
1699595102.018789,1.919282078742981,1.816659688949585,3.4378483295440674,1.0758570432662964,-1.6615180969238281,0.6330580115318298,0.09000000357627869,0.6510000228881836,-0.47850000858306885
1699595102.0238562,1.8386502265930176,1.9522678852081299,4.219732761383057,0.09784400463104248,-1.9966521263122559,0.3912540078163147,0.09000000357627869,0.6510000228881836,-0.47850000858306885
1699595102.0289545,1.762905240058899,1.8862963914871216,4.732844352722168,1.148874044418335,-1.904054045677185,0.8150820136070251,0.11550000309944153,0.6525000333786011,-0.48750001192092896
1699595102.033947,1.7115939855575562,1.7690136432647705,5.447535991668701,0.14932800829410553,-0.7655500173568726,0.41376301646232605,0.11550000309944153,0.6525000333786011,-0.48750001192092896
1699595102.03909,1.637070655822754,1.4281609058380127,5.4340972900390625,0.42504802346229553,-1.032852053642273,0.5191709995269775,0.13650000095367432,0.6449999809265137,-0.4950000047683716
1699595102.044155,1.327981948852539,1.2449066638946533,5.008947372436523,0.21789200603961945,-1.8335380554199219,0.575169026851654,0.13650000095367432,0.6449999809265137,-0.4950000047683716
1699595102.0492752,1.3023263216018677,0.7879929542541504,4.424977779388428,0.5993860363960266,-1.6775000095367432,0.5021520256996155,0.1574999988079071,0.6284999847412109,-0.5009999871253967
1699595102.0543077,1.0616525411605835,-0.04886778071522713,3.9705071449279785,0.6442210078239441,-1.3734760284423828,0.588528037071228,0.1574999988079071,0.6284999847412109,-0.5009999871253967
1699595102.0595074,0.3689517378807068,-0.25777754187583923,4.858679294586182,-0.8832800388336182,-1.0882400274276733,0.26040899753570557,0.18150000274181366,0.6270000338554382,-0.5099999904632568
1699595102.063501,0.2357870489358902,-0.09529217332601547,5.800605773925781,-0.35068902373313904,-1.4963300228118896,0.3547150194644928,0.18150000274181366,0.6270000338554382,-0.5099999904632568
1699595102.0685043,-0.2089097648859024,-0.2724378705024719,6.172000885009766,-0.33257201313972473,-1.024556040763855,0.4257190227508545,0.19500000774860382,0.6315000057220459,-0.5055000185966492
1699595102.0735183,-0.5387672781944275,-0.38849884271621704,6.846375942230225,0.33934301137924194,-1.3872621059417725,0.30243802070617676,0.19500000774860382,0.6315000057220459,-0.5055000185966492
1699595102.0785208,-0.6474980711936951,-0.8857285380363464,5.765176296234131,0.39534100890159607,-1.3742080926895142,0.6852740049362183,0.22349999845027924,0.6225000023841858,-0.5084999799728394
1699595102.0835352,-0.8234221339225769,-1.5857595205307007,4.086568355560303,0.33690300583839417,-1.5443370342254639,0.6257990002632141,0.22349999845027924,0.6225000023841858,-0.5084999799728394
1699595102.0885115,-0.9810206890106201,-2.2198188304901123,2.7524776458740234,0.10772600769996643,-1.5655651092529297,0.6033509969711304,0.23399999737739563,0.6104999780654907,-0.5055000185966492
1699595102.0935094,-1.1972606182098389,-2.5728886127471924,0.8112051486968994,-0.15317100286483765,-1.5130441188812256,0.5075200200080872,0.23399999737739563,0.6104999780654907,-0.5055000185966492
1699595102.0988045,-1.4183872938156128,-2.7879068851470947,-0.15026842057704926,-0.331046998500824,-1.4535690546035767,0.42297402024269104,0.2370000034570694,0.6194999814033508,-0.49799999594688416
1699595102.1037917,-1.660282850265503,-2.8966376781463623,-0.8075400590896606,-0.5200250148773193,-1.3529800176620483,0.3323890268802643,0.2370000034570694,0.6194999814033508,-0.49799999594688416
1699595102.1086302,-2.0035789012908936,-2.9613873958587646,-1.2534586191177368,-0.7043060064315796,-1.2777670621871948,0.2580299973487854,0.23250000178813934,0.6240000128746033,-0.4934999942779541
1699595102.1136296,-2.3004508018493652,-2.954057455062866,-1.4098354578018188,-0.8646140098571777,-1.2117650508880615,0.18251200020313263,0.23250000178813934,0.6240000128746033,-0.4934999942779541
1699595102.118652,-2.6058743000030518,-2.9467272758483887,-1.4428212642669678,-0.9868580102920532,-1.1416760683059692,0.17958401143550873,0.2175000011920929,0.637499988079071,-0.4860000014305115
1699595102.1236403,-2.910076379776001,-2.8819773197174072,-1.4648116827011108,-1.1071500778198242,-1.071038007736206,0.14816901087760925,0.2175000011920929,0.637499988079071,-0.4860000014305115
1699595102.1286488,-3.2130565643310547,-2.728043794631958,-1.4367127418518066,-1.2152420282363892,-0.9717300534248352,0.14743700623512268,0.20100000500679016,0.6480000019073486,-0.46950000524520874
1699595102.1336582,-3.497711420059204,-2.5508980751037598,-1.4428212642669678,-1.336205005645752,-0.8489980101585388,0.1512800008058548,0.20100000500679016,0.6480000019073486,-0.46950000524520874
1699595102.1386569,-3.777479410171509,-2.3529837131500244,-1.5234531164169312,-1.4287420511245728,-0.7204100489616394,0.14231300354003906,0.1770000010728836,0.6495000123977661,-0.4650000035762787
1699595102.143647,-3.939964771270752,-2.080545663833618,-1.6798299551010132,-1.5384200811386108,-0.5945670008659363,0.14438700675964355,0.1770000010728836,0.6495000123977661,-0.4650000035762787
1699595102.1485994,-4.057247638702393,-1.7177025079727173,-1.8948482275009155,-1.645780086517334,-0.4731770157814026,0.1407880038022995,0.17249999940395355,0.6585000157356262,-0.4334999918937683
1699595102.153658,-4.003492832183838,-1.4135005474090576,-2.0463383197784424,-1.766011118888855,-0.3257400095462799,0.11224000155925751,0.17249999940395355,0.6585000157356262,-0.4334999918937683
1699595102.1588092,-3.8544461727142334,-1.0640959739685059,-2.144073963165283,-1.8507400751113892,-0.22923800349235535,0.0651480033993721,0.15450000762939453,0.6690000295639038,-0.4245000183582306
1699595102.1638095,-3.6088855266571045,-0.660936713218689,-2.146517276763916,-1.9222320318222046,-0.14890100061893463,-0.0009150000405497849,0.15450000762939453,0.6690000295639038,-0.4245000183582306
1699595102.1688132,-3.28635835647583,-0.22845686972141266,-2.091541051864624,-1.9889661073684692,-0.09198800474405289,-0.07027200609445572,0.15000000596046448,0.6780000329017639,-0.40950000286102295
1699595102.173884,-2.8941943645477295,0.26755109429359436,-1.9327207803726196,-1.9986040592193604,-0.0529480017721653,-0.17366701364517212,0.15000000596046448,0.6780000329017639,-0.40950000286102295
1699595102.1789737,-2.423841953277588,0.856407880783081,-1.674943208694458,-1.9986040592193604,-0.038735002279281616,-0.21502500772476196,0.1379999965429306,0.6794999837875366,-0.38100001215934753
1699595102.1839738,-1.927833914756775,1.557660460472107,-1.3707412481307983,-1.9986040592193604,-0.042090002447366714,-0.24424400925636292,0.1379999965429306,0.6794999837875366,-0.38100001215934753
1699595102.1889582,-1.3414205312728882,2.635195016860962,-0.9614735841751099,-1.9986040592193604,-0.05929200351238251,-0.23015300929546356,0.1290000081062317,0.6794999837875366,-0.3765000104904175
1699595102.193996,-0.8991671800613403,3.563682794570923,-0.6377245187759399,-1.9722521305084229,-0.11620500683784485,-0.12492800503969193,0.1290000081062317,0.6794999837875366,-0.3765000104904175
1699595102.1991334,-0.4850127100944519,4.4188690185546875,-0.34696123003959656,-1.7905941009521484,-0.20105600357055664,-0.06734400242567062,0.12300000339746475,0.6869999766349792,-0.3720000088214874
1699595102.2040956,-0.010995250195264816,5.39866828918457,-0.10140064358711243,-1.5626370906829834,-0.29658201336860657,-0.007808000314980745,0.12300000339746475,0.6869999766349792,-0.3720000088214874
1699595102.2090664,0.3506263196468353,6.063270092010498,0.010995250195264816,-1.28472101688385,-0.41626402735710144,0.11590000241994858,0.13500000536441803,0.6765000224113464,-0.3659999966621399
1699595102.214127,0.624285876750946,6.622806072235107,0.0525328628718853,-1.0465160608291626,-0.5139859914779663,0.2038620114326477,0.13500000536441803,0.6765000224113464,-0.3659999966621399
1699595102.2192297,0.9077190160751343,7.112705707550049,0.05008947476744652,-0.8166680335998535,-0.6182960271835327,0.25229600071907043,0.1379999965429306,0.6765000224113464,-0.38100001215934753
1699595102.2242262,1.1300674676895142,7.551293849945068,0.006108472589403391,-0.6028630137443542,-0.6941800117492676,0.3796030282974243,0.1379999965429306,0.6765000224113464,-0.38100001215934753
1699595102.2292655,1.3267602920532227,7.963005065917969,-0.013438640162348747,-0.3989400267601013,-0.7575590014457703,0.44737401604652405,0.1574999988079071,0.6735000014305115,-0.3840000033378601
1699595102.2343218,1.4965758323669434,8.329513549804688,0.045202698558568954,-0.19770100712776184,-0.8335040211677551,0.5106920003890991,0.1574999988079071,0.6735000014305115,-0.3840000033378601
1699595102.239329,1.683495044708252,8.743667602539062,0.2651077210903168,0.0031720001716166735,-0.9237840175628662,0.5866979956626892,0.16200000047683716,0.6644999980926514,-0.3930000066757202
1699595102.2443206,1.7739003896713257,9.102846145629883,0.5570927262306213,0.2651669979095459,-1.0376710891723633,0.6780760288238525,0.16200000047683716,0.6644999980926514,-0.3930000066757202
1699595102.2495205,1.7201459407806396,9.635504722595215,0.8258655071258545,0.4459710121154785,-1.1213020086288452,0.6627650260925293,0.16950000822544098,0.6614999771118164,-0.4065000116825104
1699595102.2535682,1.7030421495437622,9.703919410705566,1.1361758708953857,0.36886700987815857,-1.14655601978302,1.0607900619506836,0.16950000822544098,0.6614999771118164,-0.4065000116825104
1699595102.2585704,1.8691926002502441,8.913483619689941,1.721367597579956,0.8448500633239746,-1.2822810411453247,0.7852530479431152,0.1889999955892563,0.6554999947547913,-0.4124999940395355
1699595102.2635875,1.9449377059936523,8.810860633850098,2.0243477821350098,1.0502370595932007,-1.360361099243164,0.9257970452308655,0.1889999955892563,0.6554999947547913,-0.4124999940395355
1699595102.2686133,2.0878758430480957,8.313631057739258,2.199050188064575,1.2899670600891113,-1.489132046699524,1.104099988937378,0.20100000500679016,0.6510000228881836,-0.4124999940395355
1699595102.2736745,2.1746163368225098,7.782194137573242,2.1966066360473633,1.4979161024093628,-1.6133280992507935,1.1356370449066162,0.20100000500679016,0.6510000228881836,-0.4124999940395355
1699595102.2787595,2.1966066360473633,7.138360977172852,2.131856918334961,1.6674960851669312,-1.7260560989379883,1.2320780754089355,0.23399999737739563,0.6359999775886536,-0.4259999990463257
1699595102.2837708,2.1123099327087402,6.372358798980713,1.9913620948791504,1.8235950469970703,-1.8436640501022339,1.2311021089553833,0.23399999737739563,0.6359999775886536,-0.4259999990463257
1699595102.28887,1.9070651531219482,5.501290321350098,1.855754017829895,1.9517561197280884,-1.9546841382980347,1.2208540439605713,0.25200000405311584,0.6255000233650208,-0.42149999737739563
1699595102.2939334,1.4635900259017944,4.250275135040283,1.6492875814437866,1.9966521263122559,-1.9966521263122559,1.1644901037216187,0.25200000405311584,0.6255000233650208,-0.42149999737739563
1699595102.299003,0.9578084945678711,3.104325771331787,1.4440429210662842,1.9966521263122559,-1.9966521263122559,1.11434805393219,0.2580000162124634,0.6225000023841858,-0.42899999022483826
1699595102.30403,0.3897205591201782,1.8936264514923096,1.2302464246749878,1.9966521263122559,-1.9966521263122559,1.0624980926513672,0.2580000162124634,0.6225000023841858,-0.42899999022483826
1699595102.3091364,-0.24067382514476776,0.6682668924331665,0.9590302109718323,1.9966521263122559,-1.9966521263122559,0.9878950119018555,0.2669999897480011,0.6119999885559082,-0.42750000953674316
1699595102.3142035,-0.8820634484291077,-0.5326588153839111,0.5815265774726868,1.9442530870437622,-1.9966521263122559,0.9639220237731934,0.2669999897480011,0.6119999885559082,-0.42750000953674316
1699595102.319285,-1.5002409219741821,-1.6358489990234375,0.09407047927379608,1.7044010162353516,-1.9966521263122559,0.926895022392273,0.27300000190734863,0.6165000200271606,-0.4245000183582306
1699595102.3242624,-1.965706467628479,-2.8282227516174316,-0.5082249045372009,1.4019020795822144,-1.9500480890274048,0.8542440533638,0.27300000190734863,0.6165000200271606,-0.4245000183582306
1699595102.3295114,-2.6718459129333496,-3.5306971073150635,-0.8600729703903198,1.0468820333480835,-1.773697018623352,0.6572140455245972,0.2565000057220459,0.6255000233650208,-0.41100001335144043
1699595102.3335917,-3.1947312355041504,-4.148874759674072,-1.155722975730896,0.7764080166816711,-1.65779709815979,0.6946070194244385,0.2565000057220459,0.6255000233650208,-0.41100001335144043
1699595102.3385663,-3.58078670501709,-4.620448589324951,-1.41594398021698,0.5108140110969543,-1.5389080047607422,0.597678005695343,0.24899999797344208,0.6330000162124634,-0.4050000011920929
1699595102.3435724,-3.9436299800872803,-4.968631744384766,-1.6236320734024048,0.2757200002670288,-1.384700059890747,0.5280160307884216,0.24899999797344208,0.6330000162124634,-0.4050000011920929
1699595102.3486602,-4.203850746154785,-5.206861972808838,-1.7494665384292603,0.03525800257921219,-1.2170720100402832,0.4703710079193115,0.2460000067949295,0.6389999985694885,-0.39149999618530273
1699595102.3537211,-4.393213272094727,-5.348578453063965,-1.7433581352233887,-0.13926300406455994,-1.0786020755767822,0.38314101099967957,0.2460000067949295,0.6389999985694885,-0.39149999618530273
1699595102.3588235,-4.493392467498779,-5.4255452156066895,-1.6444008350372314,-0.37551602721214294,-0.9294570088386536,0.31829801201820374,0.23849999904632568,0.6539999842643738,-0.3734999895095825
1699595102.3638136,-4.516604423522949,-5.420658588409424,-1.4220523834228516,-0.550769031047821,-0.8293560147285461,0.2652890086174011,0.23849999904632568,0.6539999842643738,-0.3734999895095825
1699595102.368997,-4.505609512329102,-5.364460468292236,-1.0323318243026733,-0.7126630544662476,-0.7457860112190247,0.2438170164823532,0.2070000022649765,0.6614999771118164,-0.3675000071525574
1699595102.3740346,-4.473845481872559,-5.341248512268066,-0.4850127100944519,-0.8696160316467285,-0.658007025718689,0.23905901610851288,0.19500000774860382,0.6629999876022339,-0.3345000147819519
1699595102.379128,-4.409095287322998,-5.082249164581299,0.10017894953489304,-0.904386043548584,-0.5900530219078064,0.04373700171709061,0.19500000774860382,0.6629999876022339,-0.3345000147819519
1699595102.3841507,-4.311359882354736,-4.547146797180176,0.6218425035476685,-1.0845800638198853,-0.4996510148048401,0.12492800503969193,0.19349999725818634,0.671999990940094,-0.32850000262260437
1699595102.3892617,-4.234393119812012,-4.225841522216797,1.1496145725250244,-1.189378023147583,-0.419497013092041,0.05435100197792053,0.19349999725818634,0.671999990940094,-0.32850000262260437
1699595102.3943207,-4.167200088500977,-3.980280637741089,1.3573026657104492,-1.2415330410003662,-0.3596560060977936,-0.06691700220108032,0.1875,0.6765000224113464,-0.296999990940094
1699595102.3993502,-4.05480432510376,-3.7359418869018555,1.3670761585235596,-1.297104001045227,-0.30231600999832153,-0.1664080023765564,0.1875,0.6765000224113464,-0.296999990940094
1699595102.404321,-3.870328187942505,-3.5270321369171143,1.2168077230453491,-1.3672540187835693,-0.24698901176452637,-0.22094200551509857,0.1875,0.6855000257492065,-0.2745000123977661
1699595102.409451,-3.5734565258026123,-3.330339193344116,0.9003888368606567,-1.4699780941009521,-0.17702201008796692,-0.28767600655555725,0.1875,0.6855000257492065,-0.2745000123977661
1699595102.4135206,-3.428074836730957,-3.2154998779296875,0.7415685653686523,-1.511336088180542,-0.1550620049238205,-0.3122590184211731,0.1875,0.6855000257492065,-0.2745000123977661
1699595102.418539,-3.026137351989746,-3.0395760536193848,0.3640649616718292,-1.6339460611343384,-0.10522500425577164,-0.34867602586746216,0.19500000774860382,0.6855000257492065,-0.2685000002384186
1699595102.4235148,-2.6767327785491943,-2.8245577812194824,0.08063183724880219,-1.7338640689849854,-0.07991000264883041,-0.36667102575302124,0.19500000774860382,0.6855000257492065,-0.2685000002384186
1699595102.4287941,-2.2564697265625,-2.453162670135498,-0.16859383881092072,-1.8440300226211548,-0.06270800530910492,-0.36246201395988464,0.19349999725818634,0.6840000152587891,-0.25049999356269836
1699595102.4338622,-1.951046109199524,-2.074437379837036,-0.23945212364196777,-1.9569411277770996,-0.057767003774642944,-0.39314502477645874,0.1860000044107437,0.6735000014305115,-0.23849999904632568
1699595102.4389644,-1.6798299551010132,-1.6334055662155151,-0.19058434665203094,-1.9986040592193604,-0.05697400122880936,-0.4098590016365051,0.1860000044107437,0.6735000014305115,-0.23849999904632568
1699595102.4439638,-1.4318259954452515,-1.1667182445526123,-0.0525328628718853,-1.9986040592193604,-0.06264699995517731,-0.42724400758743286,0.1784999966621399,0.6780000329017639,-0.22949999570846558
1699595102.4489956,-1.2473500967025757,-0.6914790868759155,0.1832541823387146,-1.9986040592193604,-0.07917800545692444,-0.4845230281352997,0.1784999966621399,0.6780000329017639,-0.22949999570846558
1699595102.4540572,-1.0970816612243652,-0.1820324808359146,0.5070032477378845,-1.9986040592193604,-0.08893800526857376,-0.4686630070209503,0.19200000166893005,0.6765000224113464,-0.23250000178813934
1699595102.4591484,-0.9688037633895874,0.43858832120895386,0.8380824327468872,-1.9986040592193604,-0.09997900575399399,-0.48312002420425415,0.19200000166893005,0.6765000224113464,-0.23250000178813934
1699595102.4641457,-0.8038749694824219,1.037218689918518,1.1593880653381348,-1.9986040592193604,-0.1058960035443306,-0.47390902042388916,0.18450000882148743,0.6825000047683716,-0.22349999845027924
1699595102.4693182,-0.5375455617904663,1.8349851369857788,1.5149011611938477,-1.9986040592193604,-0.1218780055642128,-0.44944801926612854,0.18450000882148743,0.6825000047683716,-0.22349999845027924
1699595102.4743829,-0.28221142292022705,2.465379476547241,1.7824523448944092,-1.9986040592193604,-0.1415809988975525,-0.41339701414108276,0.1965000033378601,0.6765000224113464,-0.23399999737739563
1699595102.4793859,-0.023212196305394173,3.062788248062134,2.0500032901763916,-1.9933581352233887,-0.1638460010290146,-0.35752102732658386,0.1965000033378601,0.6765000224113464,-0.23399999737739563
1699595102.4843779,0.367730051279068,3.696847677230835,2.330993175506592,-1.842932105064392,-0.23186101019382477,-0.3550810217857361,0.2070000022649765,0.6825000047683716,-0.2355000078678131
1699595102.4894974,0.6597150564193726,4.13665771484375,2.6388602256774902,-1.72691011428833,-0.2957890033721924,-0.28688302636146545,0.2070000022649765,0.6825000047683716,-0.2355000078678131
1699595102.493559,0.8710681796073914,4.405430316925049,2.9198498725891113,-1.6383380889892578,-0.3449550271034241,-0.2311900109052658,0.21899999678134918,0.671999990940094,-0.2370000034570694
1699595102.4985788,1.1056334972381592,4.735288143157959,3.332782745361328,-1.5189000368118286,-0.4093100130558014,-0.14902301132678986,0.21899999678134918,0.671999990940094,-0.2370000034570694
1699595102.5035534,1.321873426437378,5.011390686035156,3.760375738143921,-1.3834190368652344,-0.48482802510261536,-0.15744100511074066,0.23399999737739563,0.6629999876022339,-0.23250000178813934
1699595102.5085871,1.5356700420379639,5.212970733642578,4.156204700469971,-1.2653840780258179,-0.5614440441131592,-0.09095100313425064,0.23399999737739563,0.6629999876022339,-0.23250000178813934
1699595102.5136433,1.770235300064087,5.412106513977051,4.558142185211182,-1.1533880233764648,-0.6314720511436462,-0.001891000079922378,0.24449999630451202,0.6570000052452087,-0.2460000067949295
1699595102.5186527,1.933942437171936,5.5037336349487305,4.767052173614502,-1.0112580060958862,-0.7191900014877319,0.05795000120997429,0.24449999630451202,0.6570000052452087,-0.2460000067949295
1699595102.523583,2.1196398735046387,5.54282808303833,4.902659893035889,-0.9149390459060669,-0.8056880235671997,0.07387100160121918,0.27000001072883606,0.6495000123977661,-0.24899999797344208
1699595102.5287786,2.3334364891052246,5.482964992523193,4.9771833419799805,-0.7987340092658997,-0.926956057548523,0.08021499961614609,0.27000001072883606,0.6495000123977661,-0.24899999797344208
1699595102.5338702,2.4714879989624023,5.332696437835693,5.0174994468688965,-0.7397470474243164,-1.0138200521469116,0.14097100496292114,0.2849999964237213,0.6420000195503235,-0.2565000057220459
1699595102.5389578,2.5728886127471924,5.164102554321289,5.071253776550293,-0.6784420013427734,-1.111968994140625,0.11565600335597992,0.2849999964237213,0.6420000195503235,-0.2565000057220459
1699595102.5439365,2.6107611656188965,4.962522983551025,5.220300674438477,-0.6514800190925598,-1.2034080028533936,0.0894870012998581,0.30149999260902405,0.6299999952316284,-0.26100000739097595
1699595102.549039,2.611982822418213,4.741396427154541,5.409663200378418,-0.6447700262069702,-1.3085720539093018,0.08350900560617447,0.30149999260902405,0.6299999952316284,-0.26100000739097595
1699595102.5540986,2.5362377166748047,4.541038513183594,5.608799457550049,-0.6627650260925293,-1.3947041034698486,0.17031200230121613,0.3149999976158142,0.6209999918937683,-0.26249998807907104
1699595102.5591931,2.3798608779907227,4.352897644042969,5.800605773925781,-0.6679500341415405,-1.480836033821106,0.1525000035762787,0.3149999976158142,0.6209999918937683,-0.26249998807907104
1699595102.5641866,2.18438982963562,4.18919038772583,5.910558223724365,-0.6924720406532288,-1.5354920625686646,0.162199005484581,0.34049999713897705,0.6119999885559082,-0.27900001406669617
1699595102.5692427,1.919282078742981,4.032813549041748,5.959425926208496,-0.7251070141792297,-1.5970410108566284,0.1513410061597824,0.34049999713897705,0.6119999885559082,-0.27900001406669617
1699595102.5742671,1.532004952430725,3.9680638313293457,5.926440238952637,-0.7584130167961121,-1.6408390998840332,0.09058500081300735,0.3645000159740448,0.5954999923706055,-0.2745000123977661
1699595102.5792668,1.138619303703308,3.9582903385162354,5.812822341918945,-0.816851019859314,-1.6516361236572266,0.0542290024459362,0.3645000159740448,0.5954999923706055,-0.2745000123977661
1699595102.5842803,0.7391251921653748,3.95706844329834,5.6943182945251465,-0.8577210307121277,-1.6307740211486816,0.07667700201272964,0.3765000104904175,0.5895000100135803,-0.2639999985694885
1699595102.58935,0.18936264514923096,3.9998278617858887,5.507399082183838,-0.8764480352401733,-1.5875860452651978,0.03172000125050545,0.3765000104904175,0.5895000100135803,-0.2639999985694885
1699595102.5944016,-0.24556060135364532,4.026705265045166,5.380342483520508,-0.9796600341796875,-1.5187780857086182,0.038735002279281616,0.3959999978542328,0.5759999752044678,-0.26249998807907104
1699595102.5994024,-0.5790832042694092,4.086568355560303,5.370569229125977,-1.0371830463409424,-1.466562032699585,-0.012749000452458858,0.3959999978542328,0.5759999752044678,-0.26249998807907104
1699595102.604404,-0.8380824327468872,4.211181163787842,5.509842395782471,-1.081286072731018,-1.4225200414657593,-0.06185400113463402,0.40950000286102295,0.5670000314712524,-0.2475000023841858
1699595102.6095262,-1.0164498090744019,4.3467888832092285,5.787167072296143,-1.110200047492981,-1.3493200540542603,-0.08808400481939316,0.40950000286102295,0.5670000314712524,-0.2475000023841858
1699595102.6135113,-1.1483927965164185,4.482397079467773,6.119467735290527,-1.1389920711517334,-1.2939320802688599,-0.10943400114774704,0.42149999737739563,0.565500020980835,-0.2280000001192093
1699595102.6185205,-1.243685007095337,4.598458290100098,6.450547218322754,-1.1542420387268066,-1.244156002998352,-0.11400900781154633,0.42149999737739563,0.565500020980835,-0.2280000001192093
1699595102.6235154,-1.2913310527801514,4.703524112701416,6.730315208435059,-1.154425024986267,-1.204140067100525,-0.11400900781154633,0.4424999952316284,0.5325000286102295,-0.2160000056028366
1699595102.6285632,-1.2864443063735962,4.78415584564209,6.9673237800598145,-1.1283780336380005,-1.1670520305633545,-0.17427700757980347,0.4424999952316284,0.5325000286102295,-0.2160000056028366
1699595102.6334915,-1.225359559059143,4.862344264984131,7.107818603515625,-1.1457630395889282,-1.1411880254745483,-0.12096300721168518,0.45000001788139343,0.5205000042915344,-0.19200000166893005
1699595102.6384938,-1.1447277069091797,4.935646057128906,7.143248081207275,-1.126242995262146,-1.1311841011047363,-0.13792100548744202,0.45000001788139343,0.5205000042915344,-0.19200000166893005
1699595102.6435444,-1.0531007051467896,4.955193042755127,7.046733856201172,-1.1238640546798706,-1.1106880903244019,-0.18373200297355652,0.47850000858306885,0.49650001525878906,-0.16500000655651093
1699595102.6485996,-0.9492566585540771,4.923429012298584,6.852484703063965,-1.0938520431518555,-1.0966579914093018,-0.13682299852371216,0.47850000858306885,0.49650001525878906,-0.16500000655651093
1699595102.6536589,-0.8637380003929138,4.885556221008301,6.609367370605469,-1.0992810726165771,-1.0998910665512085,-0.2332030087709427,0.48750001192092896,0.4740000069141388,-0.15000000596046448
1699595102.6586676,-0.7806627750396729,4.84279727935791,6.33448600769043,-1.0923880338668823,-1.0928760766983032,-0.1584780067205429,0.48750001192092896,0.4740000069141388,-0.15000000596046448
1699595102.663689,-0.6902574300765991,4.8415751457214355,5.970421314239502,-1.0869590044021606,-1.09128999710083,-0.17964500188827515,0.48000001907348633,0.4620000123977661,-0.1290000081062317
1699595102.668709,-0.712247908115387,4.844018936157227,5.621016502380371,-1.1450920104980469,-1.0052800178527832,-0.018605001270771027,0.48000001907348633,0.4620000123977661,-0.1290000081062317
1699595102.673659,-0.8026533126831055,4.931980609893799,5.254508018493652,-1.1048320531845093,-1.1219120025634766,-0.10882400721311569,0.4950000047683716,0.4350000023841858,-0.10949999839067459
1699595102.6786578,-1.0250016450881958,5.007725715637207,4.997952461242676,-1.1049540042877197,-1.0357800722122192,-0.20837600529193878,0.4950000047683716,0.4350000023841858,-0.10949999839067459
1699595102.6836088,-1.156944751739502,5.013834476470947,4.9246506690979,-1.0907410383224487,-1.0239460468292236,-0.2655330002307892,0.5055000185966492,0.40950000286102295,-0.07800000160932541
1699595102.6886957,-1.2559019327163696,5.043155193328857,5.015056133270264,-1.0983660221099854,-0.9738040566444397,-0.281576007604599,0.5055000185966492,0.40950000286102295,-0.07800000160932541
1699595102.6937616,-1.3084348440170288,5.093244552612305,5.1677680015563965,-1.0939130783081055,-0.8934060335159302,-0.28005102276802063,0.5070000290870667,0.3930000066757202,-0.05250000208616257
1699595102.6988113,-1.3817365169525146,5.1677680015563965,5.365682125091553,-1.122644066810608,-0.8239880204200745,-0.22978700697422028,0.5070000290870667,0.3930000066757202,-0.05250000208616257
1699595102.703843,-1.3841798305511475,5.203197002410889,5.500068664550781,-1.1095900535583496,-0.7779940366744995,-0.25534600019454956,0.5009999871253967,0.3645000159740448,-0.027000000700354576
1699595102.7090058,-1.3377554416656494,5.250843048095703,5.5758137702941895,-1.1044660806655884,-0.7311460375785828,-0.3247640132904053,0.5009999871253967,0.3645000159740448,-0.027000000700354576
1699595102.71405,-1.1044118404388428,5.332696437835693,5.569705486297607,-1.0434660911560059,-0.6979010105133057,-0.3744790256023407,0.48899999260902405,0.3465000092983246,-0.010499999858438969
1699595102.7191906,-0.7977665066719055,5.42188024520874,5.520837306976318,-1.0608510971069336,-0.6888120174407959,-0.31634601950645447,0.48899999260902405,0.3465000092983246,-0.010499999858438969
1699595102.7241452,-0.4837910234928131,5.553823471069336,5.423101902008057,-1.036512017250061,-0.7101620435714722,-0.32933902740478516,0.492000013589859,0.3240000009536743,0.017999999225139618
1699595102.7292724,-0.20280128717422485,5.741964340209961,5.253286361694336,-1.0076590776443481,-0.7472500205039978,-0.22265000641345978,0.492000013589859,0.3240000009536743,0.017999999225139618
1699595102.7343354,0.04886778071522713,5.963090896606445,5.026051044464111,-0.9597130417823792,-0.7898280024528503,-0.25064900517463684,0.484499990940094,0.31200000643730164,0.02850000001490116
1699595102.7393281,0.2101314514875412,6.253854274749756,4.823249816894531,-0.8974320292472839,-0.8488760590553284,-0.16402900218963623,0.484499990940094,0.31200000643730164,0.02850000001490116
1699595102.7443287,0.31031039357185364,6.5971503257751465,4.688863754272461,-0.7714060544967651,-0.9290300607681274,-0.18879500031471252,0.45750001072883606,0.29249998927116394,0.06000000238418579
1699595102.749446,0.2993151545524597,6.86714506149292,4.626557350158691,-0.6380600333213806,-0.9795990586280823,-0.16836000978946686,0.45750001072883606,0.29249998927116394,0.06000000238418579
1699595102.7535176,0.25289076566696167,7.027186870574951,4.629000663757324,-0.539728045463562,-0.9970450401306152,-0.13420000672340393,0.4440000057220459,0.2759999930858612,0.08550000190734863
1699595102.7585156,0.1185043677687645,7.216549396514893,4.6009016036987305,-0.37295401096343994,-1.030534029006958,-0.1172420084476471,0.4440000057220459,0.2759999930858612,0.08550000190734863
1699595102.763498,-0.03665083646774292,7.247091770172119,4.5227131843566895,-0.21124300360679626,-1.0393180847167969,-0.11291100084781647,0.42149999737739563,0.27000001072883606,0.11400000005960464
1699595102.7686648,-0.22845686972141266,7.126143932342529,4.319911956787109,-0.05270400270819664,-1.0434660911560059,-0.17305700480937958,0.42149999737739563,0.27000001072883606,0.11400000005960464
1699595102.7737203,-0.42392799258232117,6.894021987915039,4.01570987701416,0.06905200332403183,-1.024556040763855,-0.262239009141922,0.3855000138282776,0.2475000023841858,0.13500000536441803
1699595102.7788165,-0.53143709897995,6.523848533630371,3.6198809146881104,0.21703800559043884,-1.012234091758728,-0.3467240035533905,0.3855000138282776,0.2475000023841858,0.13500000536441803
1699595102.7838187,-0.5900784730911255,6.014401912689209,3.1861793994903564,0.31659001111984253,-0.9912500381469727,-0.5225870013237,0.3734999895095825,0.2370000034570694,0.148499995470047
1699595102.7889054,-0.6035171151161194,5.481743335723877,2.7414824962615967,0.3670370280742645,-0.9472690224647522,-0.44194501638412476,0.3734999895095825,0.2370000034570694,0.148499995470047
1699595102.7939086,-0.577861487865448,4.780490875244141,2.192941665649414,0.40528401732444763,-0.9087780117988586,-0.5266129970550537,0.3465000092983246,0.22349999845027924,0.17100000381469727
1699595102.7989933,-0.5656445622444153,4.212402820587158,1.7971125841140747,0.39820802211761475,-0.874008059501648,-0.5607730150222778,0.3465000092983246,0.22349999845027924,0.17100000381469727
1699595102.80406,-0.5766398310661316,3.535583972930908,1.3963968753814697,0.37557700276374817,-0.8382620215415955,-0.5275280475616455,0.3269999921321869,0.21150000393390656,0.1889999955892563
1699595102.8091536,-0.554649293422699,2.9870431423187256,1.1129636764526367,0.3325110077857971,-0.8204500079154968,-0.620248019695282,0.3269999921321869,0.21150000393390656,0.1889999955892563
1699595102.8141468,-0.5363239049911499,2.473931312561035,0.8539644479751587,0.2676680088043213,-0.8073960542678833,-0.7076000571250916,0.3135000169277191,0.21150000393390656,0.18450000882148743
1699595102.8192143,-0.5399889945983887,2.03412127494812,0.5888567566871643,0.13651800155639648,-0.7947690486907959,-0.7078440189361572,0.3135000169277191,0.21150000393390656,0.18450000882148743
1699595102.8242698,-0.569309651851654,1.641957402229309,0.3249707520008087,0.04989800229668617,-0.8282580375671387,-0.7972090244293213,0.3059999942779541,0.21000000834465027,0.1979999989271164
1699595102.8292813,-0.7256865501403809,1.3609676361083984,0.09773556143045425,-0.09156100451946259,-0.8331380486488342,-0.7351720333099365,0.3059999942779541,0.21000000834465027,0.1979999989271164
1699595102.834282,-0.8747332692146301,1.1447277069091797,-0.046424392610788345,-0.19721300899982452,-0.8381400108337402,-0.8045900464057922,0.2955000102519989,0.20399999618530273,0.19949999451637268
1699595102.8394136,-1.1056334972381592,1.0726478099822998,-0.20280128717422485,-0.2777940034866333,-0.8202670216560364,-0.7866560220718384,0.2955000102519989,0.20399999618530273,0.19949999451637268
1699595102.8434777,-1.2925528287887573,1.0335536003112793,-0.39827242493629456,-0.3618520200252533,-0.7992220520973206,-0.7593280076980591,0.29100000858306885,0.20250000059604645,0.1965000033378601
1699595102.8494902,-1.3157650232315063,1.1264023780822754,-0.6646018028259277,-0.45579200983047485,-0.7447490096092224,-0.5127660036087036,0.29100000858306885,0.20250000059604645,0.1965000033378601
1699595102.8534966,-1.0164498090744019,1.138619303703308,-0.8820634484291077,-0.4618310332298279,-0.8301490545272827,-0.725229024887085,0.2835000157356262,0.19200000166893005,0.2084999978542328
1699595102.8586178,-1.1398409605026245,1.1593880653381348,-1.2461284399032593,-0.4677480161190033,-0.8906610608100891,-1.028216004371643,0.2835000157356262,0.19200000166893005,0.2084999978542328
1699595102.8636723,-1.5075709819793701,1.2754490375518799,-1.6089717149734497,-0.5353969931602478,-0.8779120445251465,-0.9618480205535889,0.2849999964237213,0.18299999833106995,0.20250000059604645
1699595102.86868,-1.9143953323364258,1.484358787536621,-1.896069884300232,-0.6087190508842468,-0.8425320386886597,-0.8458870053291321,0.2849999964237213,0.18299999833106995,0.20250000059604645
1699595102.873674,-2.381082534790039,1.8581973314285278,-2.169729471206665,-0.6484300494194031,-0.7754320502281189,-0.8033700585365295,0.2849999964237213,0.1784999966621399,0.21000000834465027
1699595102.8787262,-2.675510883331299,2.140408754348755,-2.3566486835479736,-0.6401340365409851,-0.7305360436439514,-0.8202670216560364,0.2849999964237213,0.1784999966621399,0.21000000834465027
1699595102.8837993,-2.9552791118621826,2.4018514156341553,-2.514247417449951,-0.6257990002632141,-0.688446044921875,-0.8372250199317932,0.2745000123977661,0.17399999499320984,0.20399999618530273
1699595102.8888862,-3.2704763412475586,2.7084968090057373,-2.742704153060913,-0.6032290458679199,-0.6378160119056702,-0.8107510209083557,0.2745000123977661,0.17399999499320984,0.20399999618530273
1699595102.8938956,-3.4989330768585205,2.9748260974884033,-2.96260929107666,-0.5615659952163696,-0.5704110264778137,-0.7285230159759521,0.2580000162124634,0.1665000021457672,0.2160000056028366
1699595102.898949,-3.728611707687378,3.2277169227600098,-3.225273609161377,-0.5113019943237305,-0.5194759964942932,-0.6805160045623779,0.2580000162124634,0.1665000021457672,0.2160000056028366
1699595102.9039779,-3.9815025329589844,3.457395553588867,-3.5514659881591797,-0.44566601514816284,-0.4707980155944824,-0.6534320116043091,0.26100000739097595,0.15299999713897705,0.2175000011920929
1699595102.9085655,-4.258827209472656,3.639427900314331,-3.9436299800872803,-0.3756990134716034,-0.4233400225639343,-0.6167100071907043,0.26100000739097595,0.15299999713897705,0.2175000011920929
1699595102.9135654,-4.559363842010498,3.751823902130127,-4.382218360900879,-0.33220601081848145,-0.3827750086784363,-0.5922490358352661,0.2460000067949295,0.14399999380111694,0.2160000056028366
1699595102.918628,-4.820806503295898,3.8031349182128906,-4.857457637786865,-0.261324018239975,-0.30188900232315063,-0.5208790302276611,0.2460000067949295,0.14399999380111694,0.2160000056028366
1699595102.9235964,-5.04559850692749,3.823903799057007,-5.288715362548828,-0.21966101229190826,-0.23521600663661957,-0.47390902042388916,0.23849999904632568,0.1185000017285347,0.21899999678134918
1699595102.9286144,-5.275277137756348,3.8544461727142334,-5.785945415496826,-0.1781810075044632,-0.16677400469779968,-0.4282810091972351,0.23849999904632568,0.1185000017285347,0.21899999678134918
1699595102.9335978,-5.459753036499023,3.856889486312866,-6.099920749664307,-0.1382870078086853,-0.07930000126361847,-0.3761870265007019,0.22949999570846558,0.10199999809265137,0.22050000727176666
1699595102.9385605,-5.627124786376953,3.8251254558563232,-6.362585067749023,-0.09894200414419174,-0.017202001065015793,-0.353861004114151,0.22949999570846558,0.10199999809265137,0.22050000727176666
1699595102.943559,-5.7725067138671875,3.792139768600464,-6.598371982574463,-0.06167100369930267,0.00884500052779913,-0.3101850152015686,0.2175000011920929,0.09149999916553497,0.21150000393390656
1699595102.948558,-5.916666507720947,3.71150803565979,-6.887913703918457,-0.0453840009868145,0.10656700283288956,-0.3257400095462799,0.2175000011920929,0.09149999916553497,0.21150000393390656
1699595102.9535656,-6.09869909286499,3.6088855266571045,-7.2104411125183105,-0.027267001569271088,0.15853901207447052,-0.2895060181617737,0.2160000056028366,0.08100000023841858,0.20399999618530273
1699595102.9586112,-6.247745990753174,3.4549520015716553,-7.629482269287109,-0.012932000681757927,0.19410200417041779,-0.2768790125846863,0.2160000056028366,0.08100000023841858,0.20399999618530273
1699595102.9636018,-6.428556442260742,3.288801670074463,-8.112051963806152,-0.007747000083327293,0.2697420120239258,-0.2554070055484772,0.2160000056028366,0.06300000101327896,0.20100000500679016
1699595102.9686067,-6.573938369750977,3.031024217605591,-8.772988319396973,-0.01933700032532215,0.3739300072193146,-0.22167401015758514,0.2160000056028366,0.06300000101327896,0.20100000500679016
1699595102.9736023,-6.586154937744141,2.8306663036346436,-9.183477401733398,-0.0386740006506443,0.4576220214366913,-0.20252001285552979,0.22349999845027924,0.041999999433755875,0.19949999451637268
1699595102.978622,-6.534843921661377,2.429950475692749,-9.909164428710938,-0.06148800253868103,0.5391790270805359,-0.22789600491523743,0.22349999845027924,0.041999999433755875,0.19949999451637268
1699595102.983617,-6.5336222648620605,2.1428520679473877,-10.54322338104248,-0.08308200538158417,0.6007890105247498,-0.22173501551151276,0.2355000078678131,0.027000000700354576,0.1860000044107437
1699595102.9886174,-6.262405872344971,1.919282078742981,-11.183391571044922,-0.14426501095294952,0.6775270104408264,-0.19282101094722748,0.2355000078678131,0.027000000700354576,0.1860000044107437
1699595102.9937034,-5.916666507720947,1.5857595205307007,-11.772248268127441,-0.20648500323295593,0.7223620414733887,-0.18800200521945953,0.2475000023841858,0.013500000350177288,0.17249999940395355
1699595102.9988582,-5.695539951324463,1.3084348440170288,-12.280473709106445,-0.3172000050544739,0.784216046333313,-0.17952300608158112,0.2475000023841858,0.013500000350177288,0.17249999940395355
1699595103.0039046,-5.470747947692871,0.9822424054145813,-12.679966926574707,-0.45872002840042114,0.8468020558357239,-0.19696900248527527,0.2745000123977661,0.019500000402331352,0.1589999943971634
1699595103.0090024,-5.303375720977783,0.7452336549758911,-12.748382568359375,-0.5781580209732056,0.8958460092544556,-0.2543700039386749,0.2745000123977661,0.019500000402331352,0.1589999943971634
1699595103.0139978,-5.195866584777832,0.5351021885871887,-12.572458267211914,-0.7078440189361572,0.9426330327987671,-0.2967040240764618,0.30900001525878906,0.02250000089406967,0.14550000429153442
1699595103.0192885,-5.110348224639893,0.35917818546295166,-12.160747528076172,-0.8185590505599976,1.0008879899978638,-0.35483700037002563,0.3345000147819519,0.019500000402331352,0.13500000536441803
1699595103.0243526,-4.968631744384766,0.3115321099758148,-11.543791770935059,-0.9460490345954895,1.0596920251846313,-0.4080290198326111,0.3345000147819519,0.019500000402331352,0.13500000536441803
1699595103.0293581,-4.781712532043457,0.4178195297718048,-10.556662559509277,-1.0483460426330566,1.1091630458831787,-0.5078859925270081,0.3540000021457672,0.03750000149011612,0.12300000339746475
1699595103.0343509,-4.57158088684082,0.6413896083831787,-9.631839752197266,-1.1721150875091553,1.203652024269104,-0.44780102372169495,0.3540000021457672,0.03750000149011612,0.12300000339746475
1699595103.0395026,-4.3467888832092285,0.9651386737823486,-8.652040481567383,-1.2449491024017334,1.2609920501708984,-0.4703100323677063,0.37950000166893005,0.041999999433755875,0.11250000447034836
1699595103.043567,-4.202629089355469,1.2424633502960205,-7.893368244171143,-1.2927120923995972,1.336388111114502,-0.4858650267124176,0.37950000166893005,0.041999999433755875,0.11250000447034836
1699595103.0485706,-3.8397858142852783,1.799556016921997,-6.686334133148193,-1.3290680646896362,1.401597023010254,-0.5198420286178589,0.37950000166893005,0.041999999433755875,0.11250000447034836
1699595103.0535269,-3.4720559120178223,2.288233757019043,-5.829926013946533,-1.3673760890960693,1.492792010307312,-0.5532700419425964,0.3840000033378601,0.05250000208616257,0.10649999976158142
1699595103.0586035,-3.040797710418701,2.7903501987457275,-5.112791538238525,-1.3599340915679932,1.5469601154327393,-0.5905410051345825,0.40049999952316284,0.06000000238418579,0.10050000250339508
1699595103.0636663,-2.5118038654327393,3.294910192489624,-4.534930229187012,-1.3580430746078491,1.5860611200332642,-0.5921270251274109,0.40049999952316284,0.06000000238418579,0.10050000250339508
1699595103.0686774,-1.900956630706787,3.795804977416992,-4.071907997131348,-1.3378520011901855,1.6116200685501099,-0.575169026851654,0.3959999978542328,0.0689999982714653,0.11250000447034836
1699595103.0736582,-1.0738694667816162,4.348011016845703,-3.740828514099121,-1.3047291040420532,1.6055200099945068,-0.5632740259170532,0.3959999978542328,0.0689999982714653,0.11250000447034836
1699595103.0787027,-0.43981003761291504,4.712075710296631,-3.6956260204315186,-1.25257408618927,1.5580010414123535,-0.5584550499916077,0.3869999945163727,0.07800000160932541,0.12600000202655792
1699595103.083645,0.16126367449760437,5.040711402893066,-3.801913261413574,-1.2057870626449585,1.4921820163726807,-0.526308000087738,0.3869999945163727,0.07800000160932541,0.12600000202655792
1699595103.0886467,0.7171346545219421,5.3559088706970215,-4.023039817810059,-1.1594270467758179,1.3984251022338867,-0.48470601439476013,0.375,0.09449999779462814,0.15299999713897705
1699595103.0935972,1.1752700805664062,5.666219234466553,-4.306473255157471,-1.1163610219955444,1.291248083114624,-0.4332220256328583,0.375,0.09449999779462814,0.15299999713897705
1699595103.0988472,1.5686557292938232,5.982637882232666,-4.598458290100098,-1.0665240287780762,1.1873040199279785,-0.3807620108127594,0.3540000021457672,0.1185000017285347,0.16050000488758087
1699595103.1038718,1.9241688251495361,6.360141754150391,-4.975961685180664,-0.9906400442123413,1.061461091041565,-0.33946502208709717,0.3540000021457672,0.1185000017285347,0.16050000488758087
1699595103.1089654,2.1281919479370117,6.653348445892334,-5.311927795410156,-0.926895022392273,0.9874680638313293,-0.21118201315402985,0.33000001311302185,0.13950000703334808,0.1860000044107437
1699595103.1139598,2.2552480697631836,6.952663421630859,-5.707756996154785,-0.824720025062561,0.9203070402145386,-0.2450370043516159,0.33000001311302185,0.13950000703334808,0.1860000044107437
1699595103.1189508,2.3334364891052246,7.186007022857666,-6.178109169006348,-0.7377950549125671,0.8769360184669495,-0.21197500824928284,0.30900001525878906,0.1589999943971634,0.21000000834465027
1699595103.1240091,2.4018514156341553,7.3582658767700195,-6.682669162750244,-0.6550790071487427,0.8467410206794739,-0.19215001165866852,0.30900001525878906,0.1589999943971634,0.21000000834465027
1699595103.1290965,2.4348371028900146,7.4560017585754395,-7.215327739715576,-0.5787070393562317,0.8284410238265991,-0.17476500570774078,0.27900001406669617,0.18000000715255737,0.226500004529953
1699595103.1340957,2.429950475692749,7.469440460205078,-7.889703273773193,-0.5097160339355469,0.8182540535926819,-0.15304900705814362,0.27900001406669617,0.18000000715255737,0.226500004529953
1699595103.1390467,2.400629758834839,7.370482921600342,-8.401593208312988,-0.43682101368904114,0.817827045917511,-0.14841300249099731,0.2475000023841858,0.20399999618530273,0.2355000078678131
1699595103.1440911,2.3419883251190186,7.186007022857666,-8.857285499572754,-0.39729300141334534,0.8193520307540894,-0.17964500188827515,0.2475000023841858,0.20399999618530273,0.2355000078678131
1699595103.1492748,2.273573398590088,6.852484703063965,-9.294651985168457,-0.37716302275657654,0.8237440586090088,-0.25583401322364807,0.21899999678134918,0.23100000619888306,0.26100000739097595
1699595103.1542857,2.1856114864349365,6.53728723526001,-9.469354629516602,-0.4010140299797058,0.8314300179481506,-0.31256401538848877,0.21899999678134918,0.23100000619888306,0.26100000739097595
1699595103.1594374,2.051225185394287,6.1891045570373535,-9.477906227111816,-0.46116000413894653,0.8560130596160889,-0.3512990176677704,0.1875,0.24899999797344208,0.2639999985694885
1699595103.1635065,1.925390601158142,5.905671119689941,-9.350850105285645,-0.5236240029335022,0.8796200156211853,-0.4000380039215088,0.1875,0.24899999797344208,0.2639999985694885
1699595103.1685019,1.7409147024154663,5.51350736618042,-9.002666473388672,-0.6232980489730835,0.9207340478897095,-0.46329501271247864,0.1469999998807907,0.27000001072883606,0.2639999985694885
1699595103.1735,1.532004952430725,5.126230239868164,-8.426027297973633,-0.7272420525550842,0.9702660441398621,-0.517585039138794,0.1469999998807907,0.27000001072883606,0.2639999985694885
1699595103.1785643,1.2876659631729126,4.681533336639404,-7.4560017585754395,-0.8287460207939148,1.0228480100631714,-0.5782189965248108,0.1185000017285347,0.27900001406669617,0.27300000190734863
1699595103.183616,1.0799779891967773,4.366336345672607,-6.490862846374512,-0.9606890678405762,1.0947670936584473,-0.6251890063285828,0.1185000017285347,0.27900001406669617,0.27300000190734863
1699595103.1886137,0.8918370008468628,4.1122236251831055,-5.424323558807373,-1.059509038925171,1.1565600633621216,-0.6273240447044373,0.09750000387430191,0.2759999930858612,0.2669999897480011
1699595103.193621,0.7562289237976074,3.9595119953155518,-4.324798583984375,-1.1390529870986938,1.2315289974212646,-0.6145140528678894,0.09750000387430191,0.2759999930858612,0.2669999897480011
1699595103.1986618,0.7195780873298645,3.919196128845215,-3.2069480419158936,-1.1957221031188965,1.2986900806427002,-0.6149410009384155,0.07500000298023224,0.2865000069141388,0.27149999141693115
1699595103.2037241,0.730573296546936,3.9851675033569336,-2.131856918334961,-1.205909013748169,1.3703041076660156,-0.5712040066719055,0.07500000298023224,0.2865000069141388,0.27149999141693115
1699595103.2088206,0.8783983588218689,4.13054895401001,-1.2155860662460327,-1.175165057182312,1.4282540082931519,-0.5574180483818054,0.05400000140070915,0.28200000524520874,0.27149999141693115
1699595103.2138176,1.1227372884750366,4.307694911956787,-0.5253286361694336,-1.1114810705184937,1.4797990322113037,-0.5231969952583313,0.05400000140070915,0.28200000524520874,0.27149999141693115
1699595103.2187972,1.4880238771438599,4.504387855529785,-0.15149012207984924,-1.0207130908966064,1.5257930755615234,-0.47763001918792725,0.027000000700354576,0.29249998927116394,0.2685000002384186
1699595103.2238545,2.062220335006714,4.7108540534973145,-0.10017894953489304,-0.8954800367355347,1.55647611618042,-0.40491801500320435,0.027000000700354576,0.29249998927116394,0.2685000002384186
1699595103.2289705,2.5704452991485596,4.825693130493164,-0.3530697226524353,-0.7870830297470093,1.5629420280456543,-0.3702700138092041,0.008999999612569809,0.2955000102519989,0.26100000739097595
1699595103.2339675,3.098217248916626,4.911211967468262,-0.7831062078475952,-0.6864940524101257,1.5447640419006348,-0.32543501257896423,0.008999999612569809,0.2955000102519989,0.26100000739097595
1699595103.2391155,3.7738144397735596,5.01627779006958,-1.477028727531433,-0.5828550457954407,1.5057851076126099,-0.29316601157188416,-0.015000000596046448,0.30900001525878906,0.26249998807907104
1699595103.2440825,4.283260822296143,5.115234851837158,-2.007244110107422,-0.5204520225524902,1.4496040344238281,-0.26004302501678467,-0.015000000596046448,0.30900001525878906,0.26249998807907104
1699595103.249211,4.727957725524902,5.193423271179199,-2.4311721324920654,-0.4770810306072235,1.376343011856079,-0.23289801180362701,-0.041999999433755875,0.3255000114440918,0.2475000023841858
1699595103.2542398,5.0749192237854,5.28138542175293,-2.7084968090057373,-0.43932202458381653,1.2983241081237793,-0.21618400514125824,-0.041999999433755875,0.3255000114440918,0.2475000023841858
1699595103.2594416,5.33391809463501,5.336361885070801,-2.8367745876312256,-0.4025390148162842,1.222196102142334,-0.22594401240348816,-0.05849999934434891,0.3465000092983246,0.2355000078678131
1699595103.2635112,5.528167724609375,5.404776573181152,-2.8013455867767334,-0.3728320002555847,1.1703460216522217,-0.23546001315116882,-0.05849999934434891,0.3465000092983246,0.2355000078678131
1699595103.2684996,5.68698787689209,5.442648887634277,-2.6278648376464844,-0.3236050009727478,1.0915340185165405,-0.22112500667572021,-0.0885000005364418,0.35850000381469727,0.21299999952316284
1699595103.273503,5.80793571472168,5.4719696044921875,-2.3187761306762695,-0.28944501280784607,1.02675199508667,-0.19678600132465363,-0.0885000005364418,0.35850000381469727,0.21299999952316284
1699595103.278649,5.915444850921631,5.473191261291504,-1.9046217203140259,-0.25949400663375854,0.9762440323829651,-0.1714709997177124,-0.11550000309944153,0.38100001215934753,0.1979999989271164
1699595103.2836845,6.057161331176758,5.458530902862549,-1.2473500967025757,-0.23527701199054718,0.9250040650367737,-0.1408490091562271,-0.11550000309944153,0.38100001215934753,0.1979999989271164
1699595103.2887142,6.088925361633301,5.426766872406006,-0.7855495810508728,-0.21295100450515747,0.8742520213127136,-0.12450100481510162,-0.14100000262260437,0.4050000011920929,0.1770000010728836
1699595103.2937107,6.1170244216918945,5.335139751434326,0.021990500390529633,-0.18220700323581696,0.8238660097122192,-0.12090200185775757,-0.14100000262260437,0.4050000011920929,0.1770000010728836
1699595103.2988265,6.1573405265808105,5.227630615234375,0.6743753552436829,-0.14469200372695923,0.7711620330810547,-0.09577000141143799,-0.16050000488758087,0.43050000071525574,0.148499995470047
1699595103.3038864,6.233085632324219,5.0749192237854,1.3011046648025513,-0.11620500683784485,0.7309020161628723,-0.06197600066661835,-0.16050000488758087,0.43050000071525574,0.148499995470047
1699595103.3089821,6.34059476852417,4.880669593811035,1.919282078742981,-0.09241500496864319,0.6994260549545288,-0.018727000802755356,-0.17550000548362732,0.4514999985694885,0.12150000035762787
1699595103.3139834,6.556834697723389,4.593571186065674,2.7036099433898926,-0.07997100055217743,0.6574580073356628,0.020069001242518425,-0.17550000548362732,0.4514999985694885,0.12150000035762787
1699595103.3191094,6.730315208435059,4.324798583984375,3.3401129245758057,-0.07759200036525726,0.5837700366973877,0.06167100369930267,-0.1875,0.4830000102519989,0.08550000190734863
1699595103.3241613,6.8720316886901855,4.051138877868652,4.02548360824585,-0.0920490026473999,0.5186220407485962,0.12834399938583374,-0.1875,0.4830000102519989,0.08550000190734863
1699595103.3292634,6.969767093658447,3.671191930770874,4.732844352722168,-0.10144300758838654,0.4509120285511017,0.18019400537014008,-0.18450000882148743,0.5115000009536743,0.05400000140070915
1699595103.33428,7.090714931488037,3.280249834060669,5.46097469329834,-0.1168150082230568,0.37179502844810486,0.19282101094722748,-0.18450000882148743,0.5115000009536743,0.05400000140070915
1699595103.3394344,7.264195442199707,2.704831600189209,6.372358798980713,-0.14310599863529205,0.28011199831962585,0.1903810054063797,-0.18450000882148743,0.5429999828338623,0.030000001192092896
1699595103.3434901,7.385143280029297,2.3566486835479736,6.9355597496032715,-0.1689700037240982,0.22350400686264038,0.18592800199985504,-0.18450000882148743,0.5429999828338623,0.030000001192092896
1699595103.3495083,7.524416446685791,1.7519099712371826,7.865269184112549,-0.24656200408935547,0.12309800833463669,0.21319501101970673,-0.1679999977350235,0.5774999856948853,-0.003000000026077032
